background_mouse.x,background_mouse.y,background_mouse.leftButton,background_mouse.midButton,background_mouse.rightButton,demographic_age,demographic_education,demographic_gender,background.tEnd,intro_mouse.x,intro_mouse.y,intro_mouse.leftButton,intro_mouse.midButton,intro_mouse.rightButton,intro.tEnd,hint_mouse.x,hint_mouse.y,hint_mouse.leftButton,hint_mouse.midButton,hint_mouse.rightButton,hint.tEnd,sort_intro_mouse.x,sort_intro_mouse.y,sort_intro_mouse.leftButton,sort_intro_mouse.midButton,sort_intro_mouse.rightButton,sort_intro.tEnd,sort_train_scale_right.text,sort_train_scale_left.text,sort_train_res.text,sort_train_mouse.x,sort_train_mouse.y,sort_train_mouse.leftButton,sort_train_mouse.midButton,sort_train_mouse.rightButton,sort_train_input,sort_train_labels,sort_train_trace,sort_train_compareN,sort_train.tStart,sort_train.tEnd,sort_train_compare_records,sort_expl_scale_right.text,sort_expl_scale_left.text,sort_expl_mouse.x,sort_expl_mouse.y,sort_expl_mouse.leftButton,sort_expl_mouse.midButton,sort_expl_mouse.rightButton,sort_expl_trace,sort_expl_compareN,sort_expl_compare_records,sort_expl.tStart,sort_expl.tEnd,TRAIN_2.thisRepN,TRAIN_2.thisTrialN,TRAIN_2.thisN,TRAIN_2.thisIndex,TRAIN_2.ran,img_path_base,input,encryption,ms_compare,participant,session,date,expName,psychopyVersion,OS,frameRate,merge_intro_mouse.x,merge_intro_mouse.y,merge_intro_mouse.leftButton,merge_intro_mouse.midButton,merge_intro_mouse.rightButton,merge_intro.tEnd,merge_train_scale_right.text,merge_train_scale_left.text,merge_train_mouse.x,merge_train_mouse.y,merge_train_mouse.leftButton,merge_train_mouse.midButton,merge_train_mouse.rightButton,merge_train_mouse.clicked_name,merge_train.tStart,mc_order,merge_train_compareN,merge_train_labels,merge_train_input,merge_train_compare_records,merge_train_mouse_clicked,merge_train.tEnd,merge_expl_mouse.x,merge_expl_mouse.y,merge_expl_mouse.leftButton,merge_expl_mouse.midButton,merge_expl_mouse.rightButton,merge_expl.tStart,merge_expl.tEnd,TRAIN_1.thisRepN,TRAIN_1.thisTrialN,TRAIN_1.thisN,TRAIN_1.thisIndex,TRAIN_1.ran,img_path,mc_path_1,mc_path_2,merge_test_intro_mouse.x,merge_test_intro_mouse.y,merge_test_intro_mouse.leftButton,merge_test_intro_mouse.midButton,merge_test_intro_mouse.rightButton,merge_test_intro.tEnd,merge_test_scale_right.text,merge_test_scale_left.text,merge_test_res.text,merge_test_mouse.x,merge_test_mouse.y,merge_test_mouse.leftButton,merge_test_mouse.midButton,merge_test_mouse.rightButton,merge_test_input,merge_test_labels,merge_test_compareN,merge_test_compare_records,merge_test.tStart,merge_test.tEnd,TEST_1.thisRepN,TEST_1.thisTrialN,TEST_1.thisN,TEST_1.thisIndex,TEST_1.ran,sort_test_intro_mouse.x,sort_test_intro_mouse.y,sort_test_intro_mouse.leftButton,sort_test_intro_mouse.midButton,sort_test_intro_mouse.rightButton,sort_test_intro.tEnd,sort_test_scale_right.text,sort_test_scale_left.text,sort_test_res.text,sort_test_mouse.x,sort_test_mouse.y,sort_test_mouse.leftButton,sort_test_mouse.midButton,sort_test_mouse.rightButton,sort_test_input,sort_test_labels,sort_test_trace,sort_test_compare_records,sort_test_compareN,sort_test.tStart,sort_test.tEnd,TEST_2.thisRepN,TEST_2.thisTrialN,TEST_2.thisN,TEST_2.thisIndex,TEST_2.ran,exp_check_res.text,exp_check_mouse.x,exp_check_mouse.y,exp_check_mouse.leftButton,exp_check_mouse.midButton,exp_check_mouse.rightButton,exp_check.tEnd,debrief_mouse.x,debrief_mouse.y,debrief_mouse.leftButton,debrief_mouse.midButton,debrief_mouse.rightButton
0.035028619,-0.392192518,1,0,0,_18_24,bachelor,male,4.9182,0.045726183,-0.397977363,1,0,0,1.0148,0.045726183,-0.398251004,1,0,0,0.8668,0.045726183,-0.398251004,1,0,0,1.199,E,F,"E,F,D,A,C,B",0.51477322,-0.345405477,1,0,0,"[""5"",""4"",""6"",""3"",""1"",""2""]","[""'A'"",""'D'"",""'B'"",""'C'"",""'E'"",""'F'""]","[[""1"",-0.15815890842013888,0.1548603990342882],[""1"",-0.08775594075520833,0.1310732693142361],[""1"",-0.08150519476996528,0.1310732693142361],[""3"",-0.14681660970052082,0.30606197781032984],[""3"",0.05671780056423611,0.12824049207899305],[""3"",0.0672149658203125,0.12194675021701389],[""4"",-0.10591193305121528,0.29402662489149306],[""4"",-0.006944986979166666,0.15640631781684028],[""4"",-0.007866956922743055,0.1616706339518229],[""4"",0.008783908420138889,0.12922858344184027],[""4"",-0.014622124565972222,0.13795193142361112],[""4"",-0.01519565158420139,0.13850111219618055],[""3"",0.09656358506944444,0.12889716254340278],[""1"",-0.09320692274305556,0.14015475802951388],[""1"",-0.19033494737413195,0.15446539984809027],[""5"",-0.07444159613715277,0.2600445048014323],[""5"",-0.10370402018229166,0.2084187486436632],[""5"",-0.0987091064453125,0.21794813368055554],[""5"",-0.2573282199435764,0.20109954833984375],[""5"",-0.30399173312717015,0.15882134331597222],[""5"",-0.31630669487847224,0.1476711697048611],[""5"",-0.3168505859375,0.1490597873263889],[""2"",-0.22847242567274306,0.23681267632378472],[""2"",-0.2539468722873264,0.21605911254882812],[""2"",-0.25613525390625,0.21577233208550348],[""2"",-0.25996236165364583,0.16303968641493055],[""2"",-0.25464823404947917,0.1624673800998264],[""6"",-0.1341202121310764,0.2982750786675347],[""6"",-0.19899773491753472,0.27370364718967016],[""6"",-0.19953626844618055,0.27370364718967016],[""1"",-0.1921697998046875,0.16452884250217015],[""1"",-0.13197469075520835,0.1609048800998264],[""1"",-0.12933580186631943,0.1556549072265625],[""1"",-0.131285400390625,0.1540151638454861],[""2"",-0.2682958645290799,0.1543975830078125],[""2"",-0.21250949435763888,0.15033969455295138],[""2"",-0.2084316677517361,0.14913099500868054],[""6"",-0.23028856065538195,0.23279383341471355],[""6"",-0.25420098198784724,0.15044759114583334],[""6"",-0.2653740776909722,0.14140557183159722]]",10,0.5014,63.352,"[[""A"",""B""],[""A"",""C""],[""B"",""C""],[""E"",""C""],[""E"",""A""],[""D"",""A""],[""D"",""E""],[""F"",""A""],[""F"",""D""],[""F"",""E""]]",D,C,0.490724148,-0.338031955,1,0,0,[],1,"[[""C"",""D""]]",0.505,23.5696,0,0,0,0,1,materials/merge_sort/imgs/fruits/apple,,,8,000,001,2021-10-18_20h56.39.485,seq_teaching_exp_inverse,2021.2.3,MacIntel,60.0024001,,,,,,,,,,,,,,,,,,,,,,,,,,,,,,,,,,,,,,,,,,,,,,,,,,,,,,,,,,,,,,,,,,,,,,,,,,,,,,,,,,,,,,,,,,,,,,,,,,,,
,,,,,,,,,,,,,,,,,,,,,,,,,,,A,C,"G,B,F,E,A,C,D",0.537172716,-0.359044189,1,0,0,"[""6"",""2"",""4"",""7"",""5"",""3"",""1""]","[""'C'"",""'B'"",""'E'"",""'D'"",""'A'"",""'F'"",""'G'""]","[[""2"",-0.212802734375,0.3092242601182726],[""2"",-0.16859754774305555,0.16741197374131944],[""2"",-0.15406941731770835,0.16253499348958333],[""3"",-0.05808648003472222,0.23059551662868924],[""3"",0.047617933485243055,0.1743343777126736],[""3"",0.047617933485243055,0.1735167439778646],[""3"",0.0009331597222222223,0.1581636216905382],[""3"",-0.04545613606770833,0.16288397894965279],[""4"",-0.041947428385416666,0.2402889166937934],[""4"",-0.0647705078125,0.24864664713541668],[""4"",0.05045552571614583,0.1761979505750868],[""4"",0.08625298394097222,0.1507391357421875],[""5"",-0.003784857855902778,0.2561437479654948],[""5"",0.030863579644097222,0.22166971842447916],[""5"",0.029425523546006943,0.20628082275390625],[""5"",0.03239393446180556,0.17027228461371527],[""4"",0.08398430718315972,0.14853939480251735],[""4"",0.2119339328342014,0.161148681640625],[""4"",0.22787462022569444,0.16694105360243056],[""5"",0.028785807291666667,0.165682373046875],[""5"",0.10090182834201389,0.1663175794813368],[""5"",0.10009453667534722,0.1663175794813368],[""6"",-0.006594170464409722,0.29468577067057294],[""6"",0.011252102322048612,0.21725902981228298],[""6"",0.019076877170138888,0.14691060384114582],[""6"",0.019363606770833333,0.14543063693576389],[""6"",0.02014892578125,0.14701524522569445],[""6"",0.020940687391493056,0.145416259765625],[""6"",0.024038492838541668,0.12915669759114584],[""6"",0.02778408474392361,0.10112633599175347],[""6"",0.021849772135416667,0.10276702880859374],[""6"",-0.008473985460069444,0.09216118706597222],[""6"",-0.10722113715277778,0.08636152479383681],[""6"",-0.10998948838975695,0.11405643039279514],[""6"",-0.10998948838975695,0.15659996880425348],[""2"",-0.2409793429904514,0.16424574110243056],[""2"",-0.27846421983506947,0.16702429877387154],[""6"",-0.11879353841145833,0.15908335367838541],[""6"",-0.15862026638454862,0.15841732449001736],[""6"",-0.16046420627170138,0.15841732449001736],[""3"",-0.050094536675347225,0.15969204372829862],[""3"",-0.030187852647569444,0.15969204372829862],[""7"",0.04969658745659722,0.2979289076063368],[""7"",-0.07750691731770833,0.26961254543728297],[""7"",-0.0885870361328125,0.2639776441786024],[""7"",-0.20410793728298612,0.25458977593315973],[""7"",-0.341142578125,0.15994320339626736],[""7"",-0.3426376003689236,0.15819196912977432],[""1"",-0.23391459147135416,0.2933896043565538],[""1"",-0.12702202690972222,0.29679085625542534],[""1"",-0.004950493706597222,0.27906475490993926],[""1"",0.06473537868923611,0.21680382622612848],[""1"",0.03752773708767361,0.23401436699761285],[""1"",0.03804951985677083,0.23349256727430556],[""1"",0.04272555881076389,0.24540537516276043],[""1"",0.14192206488715278,0.23108551025390625],[""1"",0.15279486762152777,0.219938473171658],[""1"",0.1573577880859375,0.2302496846516927],[""1"",0.15825425889756944,0.17867245144314237],[""1"",0.1579953342013889,0.1784151882595486]]",12,0.506,79.7025,"[[""B"",""E""],[""D"",""E""],[""A"",""E""],[""A"",""D""],[""A"",""F""],[""F"",""E""],[""F"",""B""],[""G"",""E""],[""G"",""B""],[""C"",""E""],[""C"",""D""],[""C"",""A""]]",,,0.537172716,-0.358254666,1,0,0,[],0,[],0.5187,1.8018,0,1,1,1,1,materials/merge_sort/imgs/fruits/banana,,,12,000,001,2021-10-18_20h56.39.485,seq_teaching_exp_inverse,2021.2.3,MacIntel,60.0024001,,,,,,,,,,,,,,,,,,,,,,,,,,,,,,,,,,,,,,,,,,,,,,,,,,,,,,,,,,,,,,,,,,,,,,,,,,,,,,,,,,,,,,,,,,,,,,,,,,,,
,,,,,,,,,,,,,,,,,,,,,,,,,,,H,C,"C,H,D,F,E,A,B,G",0.415466851,-0.366941054,1,0,0,"[""7"",""6"",""5"",""8"",""4"",""3"",""2"",""1""]","[""'B'"",""'A'"",""'E'"",""'G'"",""'F'"",""'D'"",""'H'"",""'C'""]","[[""1"",-0.17018988715277777,0.22784417046440972],[""1"",-0.1700722927517361,0.2292265828450521],[""1"",-0.17097913953993055,0.11400465223524306],[""1"",-0.17124308268229166,0.1159100341796875],[""4"",0.023569268120659723,0.14178873697916666],[""4"",0.028451131184895832,0.12093431260850694],[""3"",-0.14701036241319446,0.299145016140408],[""3"",-0.2853549533420139,0.09857876247829861],[""3"",-0.29362257215711807,0.13538964165581596],[""2"",-0.21803426106770835,0.19892710367838543],[""2"",-0.22056559244791665,0.20089457194010416],[""2"",-0.2322866482204861,0.20260694715711805],[""2"",-0.2322866482204861,0.13895423041449653],[""2"",-0.21262335883246528,0.12686686197916666],[""1"",-0.13532606336805555,0.12449578179253472],[""1"",-0.10787326388888889,0.12449578179253472],[""5"",-0.05137654622395833,0.29195838080512154],[""5"",-0.14693806966145834,0.2699861484103733],[""5"",-0.23705067952473957,0.2384346686469184],[""5"",-0.25889068603515625,0.23517679850260417],[""5"",-0.26149068196614583,0.23398291693793402],[""5"",-0.2578428480360243,0.23256390041775174],[""5"",-0.3146615261501736,0.17541483561197915],[""5"",-0.3373680623372396,0.14063873291015624],[""6"",-0.06894748263888889,0.2988541327582465],[""6"",-0.22773980034722222,0.20263878716362846],[""6"",-0.24359917534722222,0.1957958984375],[""3"",-0.28434800889756945,0.11591030544704861],[""3"",-0.25345289442274305,0.12335879855685764],[""3"",-0.25045088026258683,0.12424655490451389],[""5"",-0.3349646674262153,0.13822001139322918],[""5"",-0.308387451171875,0.13012654622395833],[""5"",-0.3086498684353299,0.13012654622395833],[""6"",-0.23666178385416667,0.19544453938802084],[""6"",-0.34524393717447915,0.1460990736219618],[""6"",-0.3556633843315972,0.13451453314887152],[""7"",0.03801493326822917,0.30317852444118926],[""7"",-0.20003390842013888,0.23515018039279514],[""7"",-0.23885538736979167,0.2242442152235243],[""7"",-0.23362562391493055,0.2376249016655816],[""7"",-0.3137958441840278,0.238895263671875],[""7"",-0.32685160319010415,0.24006403605143228],[""7"",-0.3631665717230903,0.1723653835720486],[""7"",-0.38654937744140627,0.13851650661892362],[""7"",-0.38514736599392363,0.13851650661892362],[""8"",0.09725118001302083,0.3012089369032118],[""8"",0.06708455403645833,0.3012089369032118],[""8"",-0.02146084255642361,0.30081907484266496],[""8"",-0.23008816189236111,0.2503074985080295],[""8"",-0.2680678982204861,0.24727342393663193],[""8"",-0.2841988796657986,0.24866724650065103],[""8"",-0.2777376980251736,0.24755501641167535],[""8"",-0.28034454345703125,0.25313356187608504],[""8"",-0.3694934760199653,0.25313356187608504],[""8"",-0.37943895128038196,0.2534511481391059]]",16,0.5111,90.9755,"[[""B"",""G""],[""E"",""B""],[""A"",""B""],[""A"",""E""],[""A"",""F""],[""E"",""F""],[""A"",""D""],[""A"",""E""],[""D"",""E""],[""D"",""F""],[""H"",""A""],[""H"",""F""],[""H"",""D""],[""C"",""E""],[""C"",""D""],[""C"",""H""]]",,,0.415466851,-0.366941054,1,0,0,[],0,[],0.5051,1.1881,0,2,2,2,1,materials/merge_sort/imgs/fruits/apple,,,13,000,001,2021-10-18_20h56.39.485,seq_teaching_exp_inverse,2021.2.3,MacIntel,60.0024001,,,,,,,,,,,,,,,,,,,,,,,,,,,,,,,,,,,,,,,,,,,,,,,,,,,,,,,,,,,,,,,,,,,,,,,,,,,,,,,,,,,,,,,,,,,,,,,,,,,,
,,,,,,,,,,,,,,,,,,,,,,,,,,,F,G,"D,I,J,E,A,C,B,G,F,H",0.475703396,-0.359674479,1,0,0,"[""8"",""6"",""4"",""3"",""2"",""10"",""9"",""7"",""1"",""5""]","[""'G'"",""'C'"",""'E'"",""'J'"",""'I'"",""'H'"",""'F'"",""'B'"",""'D'"",""'A'""]","[[""4"",-0.09455661349826389,0.31670076158311633],[""4"",-0.1333938259548611,0.1521760050455729],[""4"",-0.13934828016493056,0.14669335259331598],[""6"",0.012072414822048612,0.15633375379774306],[""6"",0.011815931532118056,0.12851732042100694],[""6"",0.009868231879340278,0.14515757242838542],[""5"",-0.060799018012152775,0.29653639051649305],[""5"",-0.2560385470920139,0.15047732883029513],[""5"",-0.28346150716145835,0.14402611626519096],[""5"",-0.28345038519965277,0.14537685818142362],[""3"",-0.14380038791232638,0.31802602132161456],[""3"",-0.08125040690104167,0.23601621839735243],[""3"",-0.03240003797743055,0.2034300740559896],[""3"",-0.028888278537326388,0.2043266126844618],[""3"",-0.028888278537326388,0.15762953016493056],[""6"",0.1504547119140625,0.14575737847222223],[""6"",0.17190721299913195,0.14610568576388888],[""6"",0.14907179090711806,0.15378167046440971],[""9"",0.14488457573784722,0.3111844719780816],[""9"",-0.053170572916666665,0.23340772840711804],[""9"",-0.07795525444878472,0.23039520263671875],[""9"",-0.13802700466579862,0.24282928466796874],[""9"",-0.13730475531684028,0.2427647908528646],[""9"",-0.33887437608506943,0.17993910047743056],[""9"",-0.3603856743706597,0.15334316677517362],[""9"",-0.3439187282986111,0.1540400187174479],[""2"",-0.20010667588975695,0.29939071655273436],[""2"",-0.098126220703125,0.2279158189561632],[""2"",-0.0792361111111111,0.22007230970594618],[""2"",-0.07949476453993055,0.22007230970594618],[""2"",-0.012791951497395834,0.23336325751410592],[""2"",0.06533555772569444,0.14734012179904513],[""2"",0.06049567328559028,0.14284247504340278],[""2"",0.06049567328559028,0.14496795654296876],[""8"",0.11172465006510417,0.3129116651746962],[""8"",0.0172064208984375,0.24341239081488716],[""8"",0.03510674370659722,0.20914764404296876],[""8"",0.03326280381944444,0.2159566413031684],[""8"",0.04743455674913195,0.2214149136013455],[""8"",0.10923095703125,0.16143700493706598],[""8"",0.11054104275173611,0.15122412787543402],[""6"",0.23354566786024306,0.15817318386501736],[""6"",0.2346927218967014,0.15817318386501736],[""8"",0.11692552354600694,0.15948638916015626],[""8"",0.15609897189670138,0.15948638916015626],[""8"",0.15695929633246528,0.15948638916015626],[""10"",0.20947496202256943,0.3020861138237847],[""10"",0.15510023328993056,0.2593578084309896],[""10"",0.04327969021267361,0.22093438042534722],[""10"",0.039653184678819446,0.2231893073187934],[""2"",0.05344401041666667,0.14728997124565973],[""2"",0.08764417860243055,0.14940985785590277],[""2"",0.09553446451822917,0.15340562608506944],[""10"",0.04981689453125,0.21753774007161458],[""10"",0.04841152615017361,0.14370083279079862],[""10"",0.033143310546875,0.1507706027560764],[""7"",0.03527784559461806,0.26544784545898437],[""7"",0.013754747178819445,0.2585585700141059],[""7"",0.013181220160590278,0.2585585700141059],[""7"",0.012057020399305556,0.26783743964301215],[""7"",0.12283745659722223,0.22533804999457466],[""7"",0.13328321668836807,0.21818417019314237],[""7"",0.17362921820746527,0.2279983181423611],[""7"",0.18911275227864582,0.15868920220269098],[""7"",0.20037590874565972,0.14940480550130208],[""6"",0.30390787760416665,0.165311279296875],[""7"",0.2327202690972222,0.15213748508029515],[""1"",-0.2353330824110243,0.28769022623697915],[""1"",-0.018175523546006944,0.25639824761284724],[""1"",0.09998792860243055,0.20336249457465277],[""1"",0.08077962239583333,0.20674218071831596],[""1"",0.07395372178819444,0.21204267713758682],[""1"",0.07366692437065972,0.21259341769748263],[""1"",0.07935011121961806,0.23308927747938368],[""1"",0.18738444010416666,0.21064765082465278],[""1"",0.20741353352864583,0.2011180962456597],[""7"",0.23931165907118054,0.15618367513020834],[""1"",0.2167215304904514,0.2080098130967882],[""1"",0.21645494249131944,0.16145789252387152],[""1"",0.2022076416015625,0.16145789252387152],[""1"",0.2012856716579861,0.16224253336588543]]",23,0.5182,129.4305,"[[""J"",""H""],[""J"",""I""],[""J"",""E""],[""H"",""E""],[""D"",""E""],[""D"",""I""],[""C"",""J""],[""C"",""H""],[""C"",""E""],[""B"",""E""],[""B"",""H""],[""B"",""C""],[""A"",""E""],[""A"",""B""],[""A"",""C""],[""F"",""E""],[""F"",""C""],[""F"",""H""],[""F"",""B""],[""G"",""A""],[""G"",""B""],[""G"",""H""],[""G"",""F""]]",,,0.475703396,-0.359674479,1,0,0,[],0,[],0.5047,1.4228,0,3,3,3,1,materials/merge_sort/imgs/fruits/melon,,,21,000,001,2021-10-18_20h56.39.485,seq_teaching_exp_inverse,2021.2.3,MacIntel,60.0024001,,,,,,,,,,,,,,,,,,,,,,,,,,,,,,,,,,,,,,,,,,,,,,,,,,,,,,,,,,,,,,,,,,,,,,,,,,,,,,,,,,,,,,,,,,,,,,,,,,,,
,,,,,,,,,,,,,,,,,,,,,,,,,,,,,,,,,,,,,,,,,,,,,,,,,,,,,,,,,,,,,,,000,001,2021-10-18_20h56.39.485,seq_teaching_exp_inverse,2021.2.3,MacIntel,60.0024001,-0.014897393,-0.418035956,1,0,0,1.8457,B,A,0.499429118,-0.390008748,1,0,0,merge_train_btn_2,0.511,"[0,1]",1,"[""'A'"",""'B'""]","[""4"",""2""]","[[""A"",""B""]]","[""merge_train_btn_2""]",14.4761,0.347441949,-0.408009033,1,0,0,0.5158,1.6816,0,0,0,0,1,materials/merge_sort/imgs/merge_train/merge_train_ex_1.png,materials/merge_sort/imgs/merge_train/merge_train_ex_1_1_correct.png,materials/merge_sort/imgs/merge_train/merge_train_ex_1_1_wrong.png,,,,,,,,,,,,,,,,,,,,,,,,,,,,,,,,,,,,,,,,,,,,,,,,,,,,,,,,,,,,,,,
,,,,,,,,,,,,,,,,,,,,,,,,,,,,,,,,,,,,,,,,,,,,,,,,,,,,,,,,,,,,,,,000,001,2021-10-18_20h56.39.485,seq_teaching_exp_inverse,2021.2.3,MacIntel,60.0024001,,,,,,,D,B,0.442840034,-0.391461521,1,0,0,merge_train_btn_2,0.5173,"[1,0]",1,"[""'A'"",""'B'"",""'D'"",""'C'""]","[""1"",""4"",""2"",""3""]","[[""B"",""D""]]","[""merge_train_btn_2""]",5.9492,0.327962443,-0.437466363,1,0,0,0.5148,1.4153,0,1,1,1,1,materials/merge_sort/imgs/merge_train/merge_train_ex_2.png,materials/merge_sort/imgs/merge_train/merge_train_ex_2_1_correct.png,materials/merge_sort/imgs/merge_train/merge_train_ex_2_1_wrong.png,,,,,,,,,,,,,,,,,,,,,,,,,,,,,,,,,,,,,,,,,,,,,,,,,,,,,,,,,,,,,,,
,,,,,,,,,,,,,,,,,,,,,,,,,,,,,,,,,,,,,,,,,,,,,,,,,,,,,,,,,,,,,,,000,001,2021-10-18_20h56.39.485,seq_teaching_exp_inverse,2021.2.3,MacIntel,60.0024001,,,,,,,C,B,0.436299099,-0.384176771,1,0,0,merge_train_btn_2,0.5,"[1,0]",1,"[""'A'"",""'B'"",""'D'"",""'C'""]","[""1"",""4"",""2"",""3""]","[[""B"",""C""]]","[""merge_train_btn_2""]",4.799,0.341980794,-0.432987467,1,0,0,0.5159,1.3818,0,2,2,2,1,materials/merge_sort/imgs/merge_train/merge_train_ex_2.png,materials/merge_sort/imgs/merge_train/merge_train_ex_2_2_correct.png,materials/merge_sort/imgs/merge_train/merge_train_ex_2_2_wrong.png,,,,,,,,,,,,,,,,,,,,,,,,,,,,,,,,,,,,,,,,,,,,,,,,,,,,,,,,,,,,,,,
,,,,,,,,,,,,,,,,,,,,,,,,,,,,,,,,,,,,,,,,,,,,,,,,,,,,,,,,,,,,,,,000,001,2021-10-18_20h56.39.485,seq_teaching_exp_inverse,2021.2.3,MacIntel,60.0024001,,,,,,,E,B,0.456438666,-0.410354886,1,0,0,merge_train_btn_2,0.5049,"[1,0]",1,"[""'C'"",""'D'"",""'B'"",""'A'"",""'G'"",""'E'"",""'F'""]","[""1"",""2"",""5"",""7"",""3"",""4"",""6""]","[[""B"",""E""]]","[""merge_train_btn_2""]",5.6487,0.281383938,-0.385672268,1,0,0,0.5164,1.2173,0,3,3,3,1,materials/merge_sort/imgs/merge_train/merge_train_ex_5.png,materials/merge_sort/imgs/merge_train/merge_train_ex_5_1_correct.png,materials/merge_sort/imgs/merge_train/merge_train_ex_5_1_wrong.png,,,,,,,,,,,,,,,,,,,,,,,,,,,,,,,,,,,,,,,,,,,,,,,,,,,,,,,,,,,,,,,
,,,,,,,,,,,,,,,,,,,,,,,,,,,,,,,,,,,,,,,,,,,,,,,,,,,,,,,,,,,,,,,000,001,2021-10-18_20h56.39.485,seq_teaching_exp_inverse,2021.2.3,MacIntel,60.0024001,,,,,,,B,F,0.387577718,-0.368148532,1,0,0,merge_train_btn_2,0.516,"[0,1]",1,"[""'C'"",""'D'"",""'B'"",""'A'"",""'G'"",""'E'"",""'F'""]","[""1"",""2"",""5"",""7"",""3"",""4"",""6""]","[[""F"",""B""]]","[""merge_train_btn_2""]",3.7818,0.246530965,-0.381382514,1,0,0,0.5153,1.0489,0,4,4,4,1,materials/merge_sort/imgs/merge_train/merge_train_ex_5.png,materials/merge_sort/imgs/merge_train/merge_train_ex_5_2_correct.png,materials/merge_sort/imgs/merge_train/merge_train_ex_5_2_wrong.png,,,,,,,,,,,,,,,,,,,,,,,,,,,,,,,,,,,,,,,,,,,,,,,,,,,,,,,,,,,,,,,
,,,,,,,,,,,,,,,,,,,,,,,,,,,,,,,,,,,,,,,,,,,,,,,,,,,,,,,,,,,,,,,000,001,2021-10-18_20h56.39.485,seq_teaching_exp_inverse,2021.2.3,MacIntel,60.0024001,,,,,,,F,A,0.441652018,-0.3889249,1,0,0,merge_train_btn_2,0.5005,"[0,1]",1,"[""'C'"",""'D'"",""'B'"",""'A'"",""'G'"",""'E'"",""'F'""]","[""1"",""2"",""5"",""7"",""3"",""4"",""6""]","[[""A"",""F""]]","[""merge_train_btn_2""]",3.8659,0.270693495,-0.418909098,1,0,0,0.5153,1.2331,0,5,5,5,1,materials/merge_sort/imgs/merge_train/merge_train_ex_5.png,materials/merge_sort/imgs/merge_train/merge_train_ex_5_3_correct.png,materials/merge_sort/imgs/merge_train/merge_train_ex_5_3_wrong.png,,,,,,,,,,,,,,,,,,,,,,,,,,,,,,,,,,,,,,,,,,,,,,,,,,,,,,,,,,,,,,,
,,,,,,,,,,,,,,,,,,,,,,,,,,,,,,,,,,,,,,,,,,,,,,,,,,,,,,,,,,,,,,,000,001,2021-10-18_20h56.39.485,seq_teaching_exp_inverse,2021.2.3,MacIntel,60.0024001,,,,,,,,,,,,,,,,,,,,,,,,,,,,,,,,,,,materials/merge_sort/imgs/merge_test/merge_test_ex_1.png,,,0.042236057,-0.396997409,1,0,0,1.3986,E,C,"D,E,C,A,B",0.514455973,-0.358111165,1,0,0,"[""1"",""2"",""5"",""3"",""4""]","[""'C'"",""'A'"",""'B'"",""'D'"",""'E'""]",2,"[[""C"",""D""],[""C"",""E""]]",0.5146,18.0632,0,0,0,0,1,,,,,,,,,,,,,,,,,,,,,,,,,,,,,,,,,,,,,,
,,,,,,,,,,,,,,,,,,,,,,,,,,,,,,,,,,,,,,,,,,,,,,,,,,,,,,,,,,,,,,,000,001,2021-10-18_20h56.39.485,seq_teaching_exp_inverse,2021.2.3,MacIntel,60.0024001,,,,,,,,,,,,,,,,,,,,,,,,,,,,,,,,,,,materials/merge_sort/imgs/merge_test/merge_test_ex_2.png,,,,,,,,,E,B,"D,E,B,A,C",0.440533447,-0.344065145,1,0,0,"[""3"",""4"",""5"",""1"",""2""]","[""'B'"",""'A'"",""'C'"",""'D'"",""'E'""]",2,"[[""B"",""D""],[""B"",""E""]]",0.5149,13.3683,0,1,1,1,1,,,,,,,,,,,,,,,,,,,,,,,,,,,,,,,,,,,,,,
,,,,,,,,,,,,,,,,,,,,,,,,,,,,,,,,,,,,,,,,,,,,,,,,,,,,,,,,,,,,,,,000,001,2021-10-18_20h56.39.485,seq_teaching_exp_inverse,2021.2.3,MacIntel,60.0024001,,,,,,,,,,,,,,,,,,,,,,,,,,,,,,,,,,,materials/merge_sort/imgs/merge_test/merge_test_ex_3.png,,,,,,,,,E,C,"F,D,A,E,C,B",0.472682699,-0.348432753,1,0,0,"[""3"",""5"",""6"",""1"",""2"",""4""]","[""'A'"",""'C'"",""'B'"",""'F'"",""'D'"",""'E'""]",4,"[[""A"",""F""],[""A"",""D""],[""A"",""E""],[""C"",""E""]]",0.5002,16.1491,0,2,2,2,1,,,,,,,,,,,,,,,,,,,,,,,,,,,,,,,,,,,,,,
,,,,,,,,,,,,,,,,,,,,,,,,,,,,,,,,,,,,,,,,,,,,,,,,,,,,,,,,,,,,,,,000,001,2021-10-18_20h56.39.485,seq_teaching_exp_inverse,2021.2.3,MacIntel,60.0024001,,,,,,,,,,,,,,,,,,,,,,,,,,,,,,,,,,,materials/merge_sort/imgs/merge_test/merge_test_ex_4.png,,,,,,,,,F,A,"E,D,B,G,C,F,A",0.461786296,-0.370726386,1,0,0,"[""2"",""3"",""5"",""7"",""1"",""4"",""6""]","[""'D'"",""'B'"",""'C'"",""'A'"",""'E'"",""'G'"",""'F'""]",6,"[[""D"",""E""],[""D"",""G""],[""B"",""G""],[""C"",""G""],[""C"",""F""],[""A"",""F""]]",0.5169,37.4693,0,3,3,3,1,,,,,,,,,,,,,,,,,,,,,,,,,,,,,,,,,,,,,,
,,,,,,,,,,,,,,,,,,,,,,,,,,,,,,,,,,,,,,,,,,,,,,,,,,,,,,,,,,,,,,,000,001,2021-10-18_20h56.39.485,seq_teaching_exp_inverse,2021.2.3,MacIntel,60.0024001,,,,,,,,,,,,,,,,,,,,,,,,,,,,,,,,,,,materials/merge_sort/imgs/merge_test/merge_test_ex_5.png,,,,,,,,,F,D,"C,E,G,A,B,D,F",0.47804796,-0.349561496,1,0,0,"[""1"",""4"",""5"",""6"",""2"",""3"",""7""]","[""'C'"",""'A'"",""'B'"",""'D'"",""'E'"",""'G'"",""'F'""]",6,"[[""C"",""E""],[""A"",""E""],[""A"",""G""],[""A"",""F""],[""B"",""F""],[""D"",""F""]]",0.5028,45.9501,0,4,4,4,1,,,,,,,,,,,,,,,,,,,,,,,,,,,,,,,,,,,,,,
,,,,,,,,,,,,,,,,,,,,,,,,,,,,,,,,,,,,,,,,,,,,,,,,,,,,,,,,,,,materials/merge_sort/imgs/fruits/melon,,,,000,001,2021-10-18_20h56.39.485,seq_teaching_exp_inverse,2021.2.3,MacIntel,60.0024001,,,,,,,,,,,,,,,,,,,,,,,,,,,,,,,,,,,,,,,,,,,,,,,,,,,,,,,,,,,,,,,0.045115899,-0.400235324,1,0,0,3.138,F,D,"D,F,B,A,C,E",0.46753635,-0.38135654,1,0,0,"[""6"",""3"",""5"",""4"",""2"",""1""]","[""'E'"",""'B'"",""'C'"",""'A'"",""'F'"",""'D'""]","[[""1"",-0.24424041748046876,0.2988292270236545],[""1"",-0.035981377495659723,0.19034786648220486],[""1"",-0.02084228515625,0.18475375705295138],[""3"",-0.15533447265625,0.29535564846462675],[""3"",-0.15596971299913195,0.17670166015625],[""3"",-0.15732713487413194,0.17856960720486112],[""4"",-0.16408738878038195,0.24752911037868924],[""4"",-0.2750842963324653,0.19086619059244792],[""4"",-0.2763851589626736,0.19026282416449652],[""5"",-0.12755839029947916,0.2477335951063368],[""5"",-0.20925191243489583,0.226482425265842],[""5"",-0.2073623996310764,0.22430277506510415],[""5"",-0.32079345703125,0.2138732231987847],[""5"",-0.32800059000651044,0.1755604722764757],[""2"",-0.19392116970486112,0.2753691948784722],[""2"",-0.19392116970486112,0.26504275851779513],[""4"",-0.24630350748697916,0.19684312608506943],[""4"",-0.23103366427951388,0.19585951063368057],[""2"",-0.19261542426215278,0.26307232326931423],[""2"",-0.26811225043402775,0.18869269476996528],[""6"",-0.07860697428385417,0.3333501688639323],[""6"",-0.2320181613498264,0.2868425835503472],[""6"",-0.24380900065104166,0.28104248046875],[""6"",-0.24661994086371528,0.28405559963650173],[""6"",-0.2887908257378472,0.2829876539442274],[""6"",-0.28426588270399306,0.300582529703776],[""6"",-0.35999674479166666,0.19924892849392362],[""6"",-0.3700719536675347,0.1865986124674479]]","[[""E"",""C""],[""A"",""C""],[""F"",""C""],[""F"",""A""],[""B"",""C""],[""B"",""F""],[""B"",""A""],[""D"",""A""],[""D"",""B""],[""D"",""F""]]",10,0.5136,45.0951,0,0,0,0,1,,,,,,,,,,,,
,,,,,,,,,,,,,,,,,,,,,,,,,,,,,,,,,,,,,,,,,,,,,,,,,,,,,,,,,,,materials/merge_sort/imgs/fruits/banana,,,,000,001,2021-10-18_20h56.39.485,seq_teaching_exp_inverse,2021.2.3,MacIntel,60.0024001,,,,,,,,,,,,,,,,,,,,,,,,,,,,,,,,,,,,,,,,,,,,,,,,,,,,,,,,,,,,,,,,,,,,,C,D,"B,E,F,A,C,D",0.530354546,-0.31904758,1,0,0,"[""4"",""6"",""5"",""2"",""3"",""1""]","[""'A'"",""'D'"",""'C'"",""'B'"",""'F'"",""'E'""]","[[""1"",-0.24688320583767362,0.31363206651475695],[""1"",-0.2040908474392361,0.25393029106987847],[""1"",-0.04672336154513889,0.1805059814453125],[""1"",-0.018286675347222222,0.14606903076171876],[""4"",-0.11911390516493056,0.1655641343858507],[""4"",-0.1667705620659722,0.14993733723958333],[""4"",-0.1676308865017361,0.14879069010416668],[""5"",-0.04808024088541667,0.2950140041775174],[""5"",-0.07934326171875,0.17915808783637152],[""5"",-0.08528299967447917,0.15258687337239582],[""1"",-0.001582980685763889,0.14663499620225695],[""1"",0.11788377549913194,0.15263990614149306],[""5"",-0.010931939019097222,0.14565104166666668],[""5"",0.018899468315972223,0.14565104166666668],[""6"",-0.06610365125868056,0.20388760036892362],[""6"",-0.08142483181423611,0.1610586886935764],[""6"",-0.07482740614149305,0.15350026448567708],[""3"",-0.14389790852864584,0.30536229451497393],[""3"",-0.03411092122395833,0.21848765055338543],[""3"",-0.03477695041232639,0.21858335706922744],[""3"",-0.021343112521701388,0.21776480780707466],[""3"",0.24290866427951388,0.1409947035047743],[""3"",0.23938625759548612,0.13543087429470485],[""3"",0.23519999186197918,0.15044664171006944],[""2"",-0.028342420789930555,0.25047381930881074],[""2"",0.04536404079861111,0.2122182888454861],[""2"",0.06838338216145834,0.2116675821940104],[""2"",0.14848002115885417,0.22453145345052083],[""2"",0.17649983723958335,0.2279734124077691],[""2"",0.19275254991319443,0.2357235378689236],[""2"",0.34491672092013886,0.1523392062717014],[""2"",0.3253390842013889,0.1392233615451389],[""2"",0.3253390842013889,0.14033128526475694]]","[[""A"",""B""],[""F"",""B""],[""F"",""A""],[""F"",""E""],[""B"",""E""],[""C"",""E""],[""C"",""A""],[""D"",""F""],[""D"",""C""]]",9,0.5067,48.4893,0,1,1,1,1,,,,,,,,,,,,
,,,,,,,,,,,,,,,,,,,,,,,,,,,,,,,,,,,,,,,,,,,,,,,,,,,,,,,,,,,materials/merge_sort/imgs/fruits/apple,,,,000,001,2021-10-18_20h56.39.485,seq_teaching_exp_inverse,2021.2.3,MacIntel,60.0024001,,,,,,,,,,,,,,,,,,,,,,,,,,,,,,,,,,,,,,,,,,,,,,,,,,,,,,,,,,,,,,,,,,,,,G,C,"G,C,E,A,F,D,B",0.527919922,-0.342969293,1,0,0,"[""7"",""5"",""3"",""6"",""1"",""4"",""2""]","[""'B'"",""'F'"",""'E'"",""'D'"",""'G'"",""'A'"",""'C'""]","[[""2"",-0.20993197970920138,0.29917300754123266],[""2"",-0.1533248562282986,0.1509339057074653],[""4"",0.018270128038194444,0.15013414171006945],[""4"",0.04962110731336806,0.14781840006510416],[""4"",0.05281982421875,0.14781840006510416],[""5"",-0.10139689127604166,0.27693934122721353],[""5"",-0.09452785915798612,0.2903440517849392],[""5"",-0.23675347222222223,0.19391384548611112],[""5"",-0.2692807006835938,0.16534837510850695],[""5"",-0.2692807006835938,0.16652984619140626],[""3"",-0.1569156222873264,0.2962469991048177],[""3"",-0.15466606987847223,0.2962469991048177],[""3"",-0.18863172743055556,0.20649102105034722],[""3"",-0.20781412760416668,0.16988216824001737],[""2"",-0.1506900363498264,0.16319224039713542],[""2"",-0.08472615559895834,0.16319224039713542],[""3"",-0.21975212944878472,0.1705288357204861],[""3"",-0.1824454074435764,0.15997823079427084],[""3"",-0.18181023491753473,0.15997823079427084],[""2"",-0.05709431966145833,0.17254814995659723],[""1"",-0.15460306803385418,0.2676781039767795],[""1"",-0.1290731472439236,0.21307413736979167],[""1"",-0.07085706922743056,0.23921876695421007],[""1"",-0.015628662109375,0.24212226019965277],[""1"",0.13131998697916666,0.14818617078993054],[""1"",0.1376437038845486,0.14477857801649305],[""6"",-0.0025361463758680554,0.30254325018988715],[""6"",-0.09747762044270833,0.24661727905273437],[""6"",-0.13008809407552083,0.22724277072482638],[""6"",-0.14572794596354166,0.23402033487955728],[""6"",-0.21948404947916667,0.21389546712239582],[""6"",-0.22040601942274304,0.2132911173502604],[""6"",-0.20541781955295138,0.23115637885199652],[""6"",-0.12450697157118056,0.1665400865342882],[""6"",-0.1222930908203125,0.1569514634874132],[""6"",-0.12114698621961806,0.16128014458550347],[""7"",0.061133355034722225,0.3136830308702257],[""7"",-0.05681627061631944,0.28513192070855037],[""7"",-0.101942138671875,0.23757554796006944],[""7"",-0.11171190049913195,0.23580964830186632],[""7"",0.03908393012152778,0.19962073432074653],[""7"",-0.002979465060763889,0.18846428765190973],[""7"",-0.011514485677083333,0.20229661729600695],[""2"",-0.06853156195746528,0.17767632378472223],[""2"",-0.017883572048611112,0.16913099500868056],[""7"",-0.0865045166015625,0.176082763671875],[""7"",-0.07806226942274305,0.1584404839409722],[""7"",-0.12257731119791666,0.20884724934895835],[""7"",-0.15362372504340277,0.2004313490125868],[""7"",-0.16351630316840277,0.19746934678819444],[""7"",-0.2313982137044271,0.19746934678819444],[""7"",-0.23554911295572917,0.17020239935980902],[""7"",-0.23554911295572917,0.16329071044921875]]","[[""F"",""D""],[""F"",""G""],[""F"",""E""],[""G"",""E""],[""B"",""E""],[""B"",""D""],[""A"",""F""],[""A"",""G""],[""A"",""E""],[""A"",""C""],[""A"",""D""],[""C"",""D""],[""C"",""F""],[""C"",""A""],[""C"",""E""],[""C"",""G""]]",16,0.5062,73.2552,0,2,2,2,1,,,,,,,,,,,,
,,,,,,,,,,,,,,,,,,,,,,,,,,,,,,,,,,,,,,,,,,,,,,,,,,,,,,,,,,,materials/merge_sort/imgs/fruits/banana,,,,000,001,2021-10-18_20h56.39.485,seq_teaching_exp_inverse,2021.2.3,MacIntel,60.0024001,,,,,,,,,,,,,,,,,,,,,,,,,,,,,,,,,,,,,,,,,,,,,,,,,,,,,,,,,,,,,,,,,,,,,G,F,"F,G,C,E,B,A,D",0.451592882,-0.353567641,1,0,0,"[""4"",""7"",""2"",""6"",""3"",""5"",""1""]","[""'E'"",""'D'"",""'G'"",""'A'"",""'C'"",""'B'"",""'F'""]","[[""2"",-0.19685763888888888,0.3021117994520399],[""2"",-0.13756856282552082,0.228838619656033],[""2"",-0.09808485243055555,0.2275368923611111],[""2"",-0.070123291015625,0.2275368923611111],[""2"",0.027496609157986112,0.15685394287109375],[""2"",0.03694430881076389,0.14984510633680556],[""6"",-0.059838324652777775,0.19179114447699652],[""6"",-0.13552469889322916,0.1758408949110243],[""6"",-0.13638502332899305,0.1758408949110243],[""2"",0.03541592068142361,0.15298902723524305],[""2"",0.0363995361328125,0.18564195421006943],[""2"",0.0363995361328125,0.18511932373046874],[""4"",-0.09279025607638888,0.2266412353515625],[""4"",-0.055945977105034725,0.17700188530815972],[""4"",-0.05338005913628472,0.17646325005425348],[""2"",0.055114067925347225,0.17750020345052084],[""2"",0.11483642578125,0.1766486612955729],[""5"",-0.08260287814670139,0.22560763888888888],[""5"",-0.08381157769097222,0.23196950276692707],[""5"",-0.21256998697916665,0.2123077392578125],[""5"",-0.2344345431857639,0.17476359049479168],[""5"",-0.2343308851453993,0.17204576280381945],[""3"",-0.15104227701822917,0.3036575995551215],[""3"",-0.08431111653645833,0.23349863688151043],[""3"",-0.08628770616319445,0.2227146742078993],[""3"",-0.09220072428385416,0.22577921549479166],[""3"",-0.14346116807725695,0.2267626953125],[""3"",-0.3273849826388889,0.17816090901692708],[""3"",-0.3427704535590278,0.17046607123480903],[""3"",-0.34160312228732637,0.1712965562608507],[""1"",-0.22193562825520832,0.2982742818196615],[""1"",-0.19564127604166667,0.24600772433810764],[""1"",-0.19047682020399306,0.2386959499782986],[""1"",-0.19047682020399306,0.2389523484971788],[""1"",-0.19152208116319444,0.24105821397569444],[""1"",-0.1891115993923611,0.2550468953450521],[""1"",-0.1891115993923611,0.17844295925564235],[""1"",-0.1877361382378472,0.17844295925564235],[""7"",0.06524081759982639,0.3114619954427083],[""7"",0.049306504991319444,0.3114619954427083],[""7"",0.04904825846354167,0.3203173658582899],[""7"",-0.164100341796875,0.26540788438585067],[""7"",-0.21753567165798612,0.24493106418185764],[""7"",-0.20661363389756945,0.24548941718207465],[""3"",-0.37274061414930554,0.1875742933485243],[""7"",-0.28282101101345486,0.23598770141601563],[""3"",-0.3417970784505208,0.19347757975260416],[""3"",-0.28173204210069447,0.15791544596354168],[""7"",-0.2910795423719618,0.23095648871527777],[""7"",-0.3370146009657118,0.16096577962239583],[""7"",-0.3386597357855903,0.16163821750217014]]","[[""B"",""D""],[""B"",""A""],[""D"",""A""],[""C"",""A""],[""C"",""B""],[""A"",""G""],[""C"",""G""],[""B"",""E""],[""C"",""E""],[""F"",""E""],[""F"",""G""]]",11,0.5088,68.0056,0,3,3,3,1,,,,,,,,,,,,
,,,,,,,,,,,,,,,,,,,,,,,,,,,,,,,,,,,,,,,,,,,,,,,,,,,,,,,,,,,materials/merge_sort/imgs/fruits/melon,,,,000,001,2021-10-18_20h56.39.485,seq_teaching_exp_inverse,2021.2.3,MacIntel,60.0024001,,,,,,,,,,,,,,,,,,,,,,,,,,,,,,,,,,,,,,,,,,,,,,,,,,,,,,,,,,,,,,,,,,,,,A,H,"G,F,D,B,E,C,H,A",0.536850315,-0.349403347,1,0,0,"[""8"",""7"",""6"",""5"",""4"",""3"",""2"",""1""]","[""'A'"",""'H'"",""'C'"",""'E'"",""'B'"",""'D'"",""'F'"",""'G'""]","[[""1"",-0.19764851888020835,0.22359407212999133],[""1"",-0.177606201171875,0.20073404947916668],[""1"",-0.15366590711805556,0.2037140570746528],[""1"",-0.09945848253038195,0.22086086697048612],[""5"",-0.13329305013020834,0.21361124674479168],[""5"",-0.20992696126302082,0.16993069118923612],[""5"",-0.17451321072048612,0.16154422336154514],[""1"",-0.07490770128038195,0.23737430148654515],[""1"",0.057443033854166665,0.15364983452690972],[""1"",0.06984686957465278,0.1456608412000868],[""1"",0.06425794813368056,0.15395480685763888],[""1"",0.06399671766493055,0.15395480685763888],[""4"",-0.09504665798611112,0.21414652506510418],[""4"",-0.05937811957465278,0.1526009792751736],[""4"",-0.04850789388020833,0.1533300103081597],[""4"",-0.04934814453125,0.15609859890407987],[""6"",-0.07883965386284722,0.22332794189453126],[""6"",-0.08753316243489584,0.22087039523654514],[""6"",-0.14579996744791668,0.22973015679253472],[""6"",-0.25937635633680556,0.1761063978407118],[""6"",-0.26392323811848956,0.1692967054578993],[""6"",-0.2647607421875,0.170987548828125],[""3"",-0.12114854600694444,0.31217264811197915],[""3"",-0.06850965711805555,0.28257515801323785],[""3"",0.0026723225911458332,0.22651107788085936],[""3"",0.018770887586805556,0.22807266235351562],[""3"",0.010273776584201389,0.2133775838216146],[""3"",0.010273776584201389,0.17244415283203124],[""3"",0.014732869466145833,0.15878516303168402],[""1"",0.09715386284722222,0.16516988118489584],[""8"",0.015663180881076388,0.21546641031901043],[""8"",-0.1110940212673611,0.20063839382595486],[""8"",-0.11166761610243056,0.20617560492621528],[""8"",-0.14332356770833332,0.22159586588541666],[""8"",-0.32083936903211807,0.19327168782552084],[""8"",-0.34297793918185765,0.1657000054253472],[""7"",-0.05265231662326389,0.27130403306749135],[""7"",-0.19486802842881945,0.22071712917751737],[""7"",-0.20067118326822916,0.22045761108398437],[""7"",-0.206087646484375,0.23136405097113716],[""7"",-0.30159830729166665,0.20713026258680556],[""7"",-0.30252027723524305,0.2062391153971354],[""6"",-0.24699469672309027,0.18013607449001737],[""6"",-0.22068372938368055,0.16539174397786457],[""7"",-0.2931087917751736,0.1771124267578125],[""7"",-0.2925045437282986,0.17319505479600694],[""2"",-0.10422553168402778,0.2603213670518663],[""2"",-0.10156277126736112,0.2044336954752604],[""2"",0.052615220811631946,0.2102328830295139],[""2"",0.058551500108506946,0.18733683268229168],[""1"",0.10045484754774306,0.15766659206814237],[""1"",0.1689876980251736,0.15766659206814237],[""2"",0.06395494249131944,0.19346201578776043],[""2"",0.0869732666015625,0.17104420979817708]]","[[""A"",""B""],[""E"",""B""],[""E"",""A""],[""E"",""D""],[""B"",""D""],[""C"",""E""],[""C"",""A""],[""G"",""E""],[""G"",""D""],[""F"",""B""],[""F"",""G""],[""F"",""D""],[""H"",""B""],[""H"",""C""],[""H"",""A""]]",15,0.5047,87.5189,0,4,4,4,1,,,,,,,,,,,,
,,,,,,,,,,,,,,,,,,,,,,,,,,,,,,,,,,,,,,,,,,,,,,,,,,,,,,,,,,,materials/merge_sort/imgs/fruits/apple,,,,000,001,2021-10-18_20h56.39.485,seq_teaching_exp_inverse,2021.2.3,MacIntel,60.0024001,,,,,,,,,,,,,,,,,,,,,,,,,,,,,,,,,,,,,,,,,,,,,,,,,,,,,,,,,,,,,,,,,,,,,H,I,"F,D,A,B,E,H,I,C,G,J",0.424314779,-0.358797879,1,0,0,"[""5"",""7"",""6"",""1"",""4"",""9"",""8"",""10"",""2"",""3""]","[""'E'"",""'I'"",""'H'"",""'F'"",""'B'"",""'G'"",""'C'"",""'J'"",""'D'"",""'A'""]","[[""1"",-0.14402838812934027,0.19399044460720485],[""1"",-0.11322333441840278,0.16515828450520834],[""6"",0.0359796142578125,0.2267594740125868],[""6"",0.04625813802083333,0.15595648871527779],[""6"",0.04625813802083333,0.15963372124565972],[""6"",0.043830023871527776,0.16654832628038194],[""5"",-0.043374091254340275,0.22204947577582465],[""5"",-0.04391981336805555,0.223268313937717],[""5"",-0.1928066677517361,0.19025919596354166],[""5"",-0.22270073784722222,0.15096927218967013],[""4"",-0.09261203342013889,0.29315426296657987],[""4"",-0.16668470594618057,0.20995185004340278],[""4"",-0.1673198784722222,0.21150899251302083],[""4"",-0.21473225911458332,0.22623131646050348],[""4"",-0.21639539930555557,0.2291251966688368],[""4"",-0.326322021484375,0.20711405436197916],[""4"",-0.3302033827039931,0.16428717719184027],[""4"",-0.33073449028862845,0.16659996880425348],[""3"",-0.15333258734809027,0.31135440402560766],[""3"",-0.05705878363715278,0.24621788872612846],[""3"",-0.036318834092881946,0.22821718004014757],[""3"",-0.03400607638888889,0.16777130126953124],[""6"",0.04600029839409722,0.1676504177517361],[""6"",0.1567937554253472,0.1676504177517361],[""3"",-0.047551133897569445,0.16813164605034722],[""3"",0.016450127495659723,0.15849711100260416],[""9"",0.15023661295572915,0.3124393547905816],[""9"",-0.04383226182725695,0.21690005832248263],[""9"",-0.16709798177083332,0.22056996663411457],[""9"",-0.17726019965277778,0.22350173950195312],[""9"",-0.18005839029947918,0.2289061991373698],[""9"",-0.2666254340277778,0.2215700446234809],[""9"",-0.2845123969184028,0.22397786458333332],[""9"",-0.2859624905056424,0.22636199951171876],[""9"",-0.27636461046006944,0.15867296006944445],[""9"",-0.27370076497395834,0.1509830050998264],[""5"",-0.23215352376302084,0.1521418253580729],[""5"",-0.20360663519965277,0.1521418253580729],[""5"",-0.20450181749131943,0.1521418253580729],[""8"",0.09265041775173612,0.29895643446180553],[""8"",-0.017177327473958334,0.21119493272569445],[""8"",-0.033210042317708334,0.21220923529730903],[""8"",-0.030791422526041667,0.21220923529730903],[""8"",-0.03995564778645833,0.22054841783311632],[""8"",0.0030086263020833335,0.22336607191297744],[""8"",0.014644300672743055,0.22702019585503472],[""8"",0.22527486165364582,0.19834025065104166],[""8"",0.2728953043619792,0.15434183756510417],[""8"",0.26619913736979167,0.16295627170138888],[""10"",0.15992418077256945,0.30023635864257814],[""10"",0.07598334418402777,0.27693954467773435],[""10"",0.04600070529513889,0.27874014960394966],[""10"",-0.1567059326171875,0.2306137932671441],[""10"",-0.1695947265625,0.22353429158528645],[""10"",-0.1767098659939236,0.21769510904947917],[""10"",-0.24791039360894096,0.18852264404296876],[""10"",-0.24819715711805557,0.18794908311631944],[""10"",-0.2489115736219618,0.1695641411675347],[""10"",-0.23398691813151043,0.1504808553059896],[""10"",-0.2004513888888889,0.15830942789713542],[""10"",-0.22436591254340277,0.15824771457248263],[""10"",-0.2319887966579861,0.1565363566080729],[""5"",-0.19781412760416667,0.15881707085503471],[""5"",-0.18758070203993055,0.15881707085503471],[""5"",-0.17159152560763888,0.16021087646484375],[""5"",-0.17159152560763888,0.1604704115125868],[""7"",0.049420030381944445,0.3214051310221354],[""7"",-0.0385308837890625,0.25429324679904514],[""7"",-0.03709391276041667,0.2531188286675347],[""7"",-0.03761013454861111,0.2529348415798611],[""7"",0.07916897243923611,0.14742435031467013],[""7"",0.08518941243489583,0.15714803059895832],[""7"",0.08246290418836806,0.1646038140190972],[""2"",-0.1445599365234375,0.3072076246473524],[""2"",-0.13816073947482638,0.3180122545030382],[""2"",-0.06583387586805556,0.2602592129177517],[""2"",-0.046461995442708334,0.24402416653103298],[""2"",-0.04506306966145834,0.24402416653103298],[""2"",-0.045676472981770834,0.25395743476019966],[""2"",0.024792344835069445,0.23166734483506946],[""2"",0.04416300455729167,0.20931803385416667],[""2"",0.04387620713975694,0.21052680121527778]]","[[""E"",""G""],[""B"",""G""],[""B"",""E""],[""F"",""E""],[""F"",""B""],[""H"",""E""],[""H"",""G""],[""E"",""D""],[""B"",""D""],[""F"",""D""],[""J"",""E""],[""J"",""G""],[""A"",""E""],[""A"",""D""],[""A"",""B""],[""C"",""E""],[""C"",""G""],[""C"",""H""],[""I"",""E""],[""I"",""C""],[""I"",""H""]]",21,0.5073,113.9707,0,5,5,5,1,,,,,,,,,,,,
,,,,,,,,,,,,,,,,,,,,,,,,,,,,,,,,,,,,,,,,,,,,,,,,,,,,,,,,,,,,,,,000,001,2021-10-18_20h56.39.485,seq_teaching_exp_inverse,2021.2.3,MacIntel,60.0024001,,,,,,,,,,,,,,,,,,,,,,,,,,,,,,,,,,,,,,,,,,,,,,,,,,,,,,,,,,,,,,,,,,,,,,,,,,,,,,,,,,,,,,,,,,-0.009020454,-0.337119208,1,0,0,6.1208,0.098297255,-0.076683621,1,0,0
