intro_mouse.x,intro_mouse.y,intro_mouse.leftButton,intro_mouse.midButton,intro_mouse.rightButton,intro.tEnd,background_mouse.x,background_mouse.y,background_mouse.leftButton,background_mouse.midButton,background_mouse.rightButton,demographic_age,demographic_education,demographic_gender,background.tEnd,merge_intro_mouse.x,merge_intro_mouse.y,merge_intro_mouse.leftButton,merge_intro_mouse.midButton,merge_intro_mouse.rightButton,merge_intro.tEnd,merge_train_scale_right.text,merge_train_scale_left.text,merge_train_mouse.x,merge_train_mouse.y,merge_train_mouse.leftButton,merge_train_mouse.midButton,merge_train_mouse.rightButton,merge_train_mouse.clicked_name,merge_train.tStart,mc_order,merge_train_compareN,merge_train_labels,merge_train_input,merge_train_mouse_clicked,merge_train.tEnd,merge_expl_mouse.x,merge_expl_mouse.y,merge_expl_mouse.leftButton,merge_expl_mouse.midButton,merge_expl_mouse.rightButton,merge_expl.tStart,merge_expl.tEnd,TRAIN_1.thisRepN,TRAIN_1.thisTrialN,TRAIN_1.thisN,TRAIN_1.thisIndex,TRAIN_1.ran,img_path,input,encryption,mc_path_1,mc_path_2,participant,session,date,expName,psychopyVersion,OS,frameRate,merge_test_intro_mouse.x,merge_test_intro_mouse.y,merge_test_intro_mouse.leftButton,merge_test_intro_mouse.midButton,merge_test_intro_mouse.rightButton,merge_test_intro.tEnd,merge_test_scale_right.text,merge_test_scale_left.text,merge_test_res.text,merge_test_mouse.x,merge_test_mouse.y,merge_test_mouse.leftButton,merge_test_mouse.midButton,merge_test_mouse.rightButton,merge_test_input,merge_test_labels,merge_test_ans,merge_test_compareN,merge_test.tStart,merge_test.tEnd,TEST_1.thisRepN,TEST_1.thisTrialN,TEST_1.thisN,TEST_1.thisIndex,TEST_1.ran,sort_intro_mouse.x,sort_intro_mouse.y,sort_intro_mouse.leftButton,sort_intro_mouse.midButton,sort_intro_mouse.rightButton,sort_intro.tEnd,sort_train_scale_right.text,sort_train_scale_left.text,sort_train_res.text,sort_train_mouse.x,sort_train_mouse.y,sort_train_mouse.leftButton,sort_train_mouse.midButton,sort_train_mouse.rightButton,sort_train_input,sort_train_labels,sort_train_trace,sort_train_ans,sort_train_compareN,sort_train.tStart,sort_train.tEnd,sort_expl_scale_right.text,sort_expl_scale_left.text,sort_expl_mouse.x,sort_expl_mouse.y,sort_expl_mouse.leftButton,sort_expl_mouse.midButton,sort_expl_mouse.rightButton,sort_expl_trace,sort_expl_compareN,sort_expl.tStart,sort_expl.tEnd,TRAIN_2.thisRepN,TRAIN_2.thisTrialN,TRAIN_2.thisN,TRAIN_2.thisIndex,TRAIN_2.ran,img_path_base,ms_compare,sort_test_intro_mouse.x,sort_test_intro_mouse.y,sort_test_intro_mouse.leftButton,sort_test_intro_mouse.midButton,sort_test_intro_mouse.rightButton,sort_test_intro.tEnd,sort_test_scale_right.text,sort_test_scale_left.text,sort_test_res.text,sort_test_mouse.x,sort_test_mouse.y,sort_test_mouse.leftButton,sort_test_mouse.midButton,sort_test_mouse.rightButton,sort_test_input,sort_test_labels,sort_test_trace,sort_test_ans,sort_test_compareN,sort_test.tStart,sort_test.tEnd,TEST_2.thisRepN,TEST_2.thisTrialN,TEST_2.thisN,TEST_2.thisIndex,TEST_2.ran,debrief_mouse.x,debrief_mouse.y,debrief_mouse.leftButton,debrief_mouse.midButton,debrief_mouse.rightButton
0.025,-0.3975,1,0,0,12.124,-0.0075,-0.42125,1,0,0,_18_24,college,male,15.703,-0.0075,-0.42125,1,0,0,52.34,B,A,0.49375,-0.40125,1,0,0,merge_train_btn_2,0.508,"[0,1]",1,"[""'A'"",""'B'""]","[""4"",""2""]","[""merge_train_btn_2""]",44.646,0.37875,-0.41125,1,0,0,0.515,16.874,0,0,0,0,1,materials/merge_sort/imgs/merge_train/merge_train_ex_1.png,,,materials/merge_sort/imgs/merge_train/merge_train_ex_1_1_correct.png,materials/merge_sort/imgs/merge_train/merge_train_ex_1_1_wrong.png,jl02,001,2021-10-03_19h08.50.505,seq_teaching_exp,2021.2.3,MacIntel,62.5,,,,,,,,,,,,,,,,,,,,,,,,,,,,,,,,,,,,,,,,,,,,,,,,,,,,,,,,,,,,,,,,,,,,,,,,,,,,,,,,,,,,,,,,,,,,,,,
,,,,,,,,,,,,,,,,,,,,,D,B,0.445,-0.4125,1,0,0,merge_train_btn_2,0.514,"[1,0]",2,"[""'A'"",""'B'"",""'D'"",""'C'""]","[""1"",""4"",""2"",""3""]","[""merge_train_btn_2""]",41.631,0.37625,-0.42875,1,0,0,0.5,4.703,0,1,1,1,1,materials/merge_sort/imgs/merge_train/merge_train_ex_2.png,,,materials/merge_sort/imgs/merge_train/merge_train_ex_2_1_correct.png,materials/merge_sort/imgs/merge_train/merge_train_ex_2_1_wrong.png,jl02,001,2021-10-03_19h08.50.505,seq_teaching_exp,2021.2.3,MacIntel,62.5,,,,,,,,,,,,,,,,,,,,,,,,,,,,,,,,,,,,,,,,,,,,,,,,,,,,,,,,,,,,,,,,,,,,,,,,,,,,,,,,,,,,,,,,,,,,,,,
,,,,,,,,,,,,,,,,,,,,,C,B,0.60375,-0.40375,1,0,0,merge_train_btn_2,0.516,"[1,0]",1,"[""'A'"",""'B'"",""'D'"",""'C'""]","[""1"",""4"",""2"",""3""]","[""merge_train_btn_2""]",15.739,0.33,-0.41375,1,0,0,0.517,7.671,0,2,2,2,1,materials/merge_sort/imgs/merge_train/merge_train_ex_2.png,,,materials/merge_sort/imgs/merge_train/merge_train_ex_2_2_correct.png,materials/merge_sort/imgs/merge_train/merge_train_ex_2_2_wrong.png,jl02,001,2021-10-03_19h08.50.505,seq_teaching_exp,2021.2.3,MacIntel,62.5,,,,,,,,,,,,,,,,,,,,,,,,,,,,,,,,,,,,,,,,,,,,,,,,,,,,,,,,,,,,,,,,,,,,,,,,,,,,,,,,,,,,,,,,,,,,,,,
,,,,,,,,,,,,,,,,,,,,,E,B,0.54,-0.40625,1,0,0,merge_train_btn_2,0.515,"[1,0]",1,"[""'C'"",""'D'"",""'B'"",""'A'"",""'G'"",""'E'"",""'F'""]","[""1"",""2"",""5"",""7"",""3"",""4"",""6""]","[""merge_train_btn_2""]",35.364,0.40375,-0.41625,1,0,0,0.5,3.467,0,3,3,3,1,materials/merge_sort/imgs/merge_train/merge_train_ex_5.png,,,materials/merge_sort/imgs/merge_train/merge_train_ex_5_1_correct.png,materials/merge_sort/imgs/merge_train/merge_train_ex_5_1_wrong.png,jl02,001,2021-10-03_19h08.50.505,seq_teaching_exp,2021.2.3,MacIntel,62.5,,,,,,,,,,,,,,,,,,,,,,,,,,,,,,,,,,,,,,,,,,,,,,,,,,,,,,,,,,,,,,,,,,,,,,,,,,,,,,,,,,,,,,,,,,,,,,,
,,,,,,,,,,,,,,,,,,,,,F,B,0.48875,-0.41125,1,0,0,merge_train_btn_2,0.5,"[0,1]",1,"[""'C'"",""'D'"",""'B'"",""'A'"",""'G'"",""'E'"",""'F'""]","[""1"",""2"",""5"",""7"",""3"",""4"",""6""]","[""merge_train_btn_2""]",21.076,0.385,-0.42875,1,0,0,0.516,2.117,0,4,4,4,1,materials/merge_sort/imgs/merge_train/merge_train_ex_5.png,,,materials/merge_sort/imgs/merge_train/merge_train_ex_5_2_correct.png,materials/merge_sort/imgs/merge_train/merge_train_ex_5_2_wrong.png,jl02,001,2021-10-03_19h08.50.505,seq_teaching_exp,2021.2.3,MacIntel,62.5,,,,,,,,,,,,,,,,,,,,,,,,,,,,,,,,,,,,,,,,,,,,,,,,,,,,,,,,,,,,,,,,,,,,,,,,,,,,,,,,,,,,,,,,,,,,,,,
,,,,,,,,,,,,,,,,,,,,,F,A,0.47625,-0.40625,1,0,0,merge_train_btn_2,0.517,"[0,1]",1,"[""'C'"",""'D'"",""'B'"",""'A'"",""'G'"",""'E'"",""'F'""]","[""1"",""2"",""5"",""7"",""3"",""4"",""6""]","[""merge_train_btn_2""]",11.737,0.3625,-0.4225,1,0,0,0.5,1.651,0,5,5,5,1,materials/merge_sort/imgs/merge_train/merge_train_ex_5.png,,,materials/merge_sort/imgs/merge_train/merge_train_ex_5_3_correct.png,materials/merge_sort/imgs/merge_train/merge_train_ex_5_3_wrong.png,jl02,001,2021-10-03_19h08.50.505,seq_teaching_exp,2021.2.3,MacIntel,62.5,,,,,,,,,,,,,,,,,,,,,,,,,,,,,,,,,,,,,,,,,,,,,,,,,,,,,,,,,,,,,,,,,,,,,,,,,,,,,,,,,,,,,,,,,,,,,,,
,,,,,,,,,,,,,,,,,,,,,,,,,,,,,,,,,,,,,,,,,,,,,,,,materials/merge_sort/imgs/merge_test/merge_test_ex_1.png,,,,,jl02,001,2021-10-03_19h08.50.505,seq_teaching_exp,2021.2.3,MacIntel,62.5,0.06125,-0.38375,1,0,0,15.155,E,B,"C,A,D,E,B",0.48,-0.3425,1,0,0,"[""1"",""2"",""5"",""3"",""4""]","[""'C'"",""'A'"",""'B'"",""'D'"",""'E'""]","C,A,D,E,B",4,0.513,39.448,0,0,0,0,1,,,,,,,,,,,,,,,,,,,,,,,,,,,,,,,,,,,,,,,,,,,,,,,,,,,,,,,,,,,,,,,,,,,,,,
,,,,,,,,,,,,,,,,,,,,,,,,,,,,,,,,,,,,,,,,,,,,,,,,materials/merge_sort/imgs/merge_test/merge_test_ex_2.png,,,,,jl02,001,2021-10-03_19h08.50.505,seq_teaching_exp,2021.2.3,MacIntel,62.5,,,,,,,E,B,"D,E,B,A,C",0.54,-0.335,1,0,0,"[""3"",""4"",""5"",""1"",""2""]","[""'B'"",""'A'"",""'C'"",""'D'"",""'E'""]","D,E,B,A,C",3,0.517,32.648,0,1,1,1,1,,,,,,,,,,,,,,,,,,,,,,,,,,,,,,,,,,,,,,,,,,,,,,,,,,,,,,,,,,,,,,,,,,,,,,
,,,,,,,,,,,,,,,,,,,,,,,,,,,,,,,,,,,,,,,,,,,,,,,,materials/merge_sort/imgs/merge_test/merge_test_ex_3.png,,,,,jl02,001,2021-10-03_19h08.50.505,seq_teaching_exp,2021.2.3,MacIntel,62.5,,,,,,,E,C,"F,D,A,E,C,B",0.51625,-0.335,1,0,0,"[""3"",""5"",""6"",""1"",""2"",""4""]","[""'A'"",""'C'"",""'B'"",""'F'"",""'D'"",""'E'""]","F,D,A,E,C,B",4,0.516,32.347,0,2,2,2,1,,,,,,,,,,,,,,,,,,,,,,,,,,,,,,,,,,,,,,,,,,,,,,,,,,,,,,,,,,,,,,,,,,,,,,
,,,,,,,,,,,,,,,,,,,,,,,,,,,,,,,,,,,,,,,,,,,,,,,,materials/merge_sort/imgs/merge_test/merge_test_ex_4.png,,,,,jl02,001,2021-10-03_19h08.50.505,seq_teaching_exp,2021.2.3,MacIntel,62.5,,,,,,,F,A,"E,D,B,G,C,F,A",0.515,-0.34625,1,0,0,"[""2"",""3"",""5"",""7"",""1"",""4"",""6""]","[""'D'"",""'B'"",""'C'"",""'A'"",""'E'"",""'G'"",""'F'""]","E,D,B,G,C,F,A",6,0.517,48.989,0,3,3,3,1,,,,,,,,,,,,,,,,,,,,,,,,,,,,,,,,,,,,,,,,,,,,,,,,,,,,,,,,,,,,,,,,,,,,,,
,,,,,,,,,,,,,,,,,,,,,,,,,,,,,,,,,,,,,,,,,,,,,,,,materials/merge_sort/imgs/merge_test/merge_test_ex_5.png,,,,,jl02,001,2021-10-03_19h08.50.505,seq_teaching_exp,2021.2.3,MacIntel,62.5,,,,,,,F,D,"C,E,G,A,B,D,F",0.455,-0.36875,1,0,0,"[""1"",""4"",""5"",""6"",""2"",""3"",""7""]","[""'C'"",""'A'"",""'B'"",""'D'"",""'E'"",""'G'"",""'F'""]","C,E,G,A,B,D,F",6,0.519,42.068,0,4,4,4,1,,,,,,,,,,,,,,,,,,,,,,,,,,,,,,,,,,,,,,,,,,,,,,,,,,,,,,,,,,,,,,,,,,,,,,
,,,,,,,,,,,,,,,,,,,,,,,,,,,,,,,,,,,,,,,,,,,,,,,,,,,,,jl02,001,2021-10-03_19h08.50.505,seq_teaching_exp,2021.2.3,MacIntel,62.5,,,,,,,,,,,,,,,,,,,,,,,,,,0.085,-0.37375,1,0,0,30.58,F,G,"D,A,C,B,E,G,F",0.4825,-0.335,1,0,0,"[""6"",""7"",""2"",""4"",""5"",""1"",""3""]","[""'A'"",""'D'"",""'B'"",""'C'"",""'E'"",""'G'"",""'F'""]","[[""1"",-0.255,0.24125],[""1"",-0.25125,0.20125],[""1"",-0.24625,0.21],[""1"",-0.315,0.1725],[""1"",-0.34625,0.13875],[""1"",-0.3575,0.21125],[""1"",-0.36375,0.33],[""1"",-0.36125,0.38625],[""1"",-0.36125,0.3775],[""1"",-0.355,0.36],[""1"",-0.3425,0.265],[""1"",-0.28375,0.1325],[""1"",-0.27125,0.10875],[""2"",-0.19875,0.2925],[""2"",-0.1675,0.12875],[""2"",-0.1575,0.10875],[""2"",-0.15375,0.11125],[""2"",-0.15375,0.1075],[""2"",-0.155,0.11],[""2"",-0.15625,0.1125],[""3"",-0.2675,0.28125],[""3"",-0.345,0.1575],[""3"",-0.345,0.11625],[""3"",-0.34375,0.11125],[""3"",-0.3125,0.1325],[""3"",-0.305,0.145],[""3"",-0.2725,0.145],[""2"",-0.0975,0.11],[""2"",-0.125,0.11],[""1"",-0.28,0.08125],[""2"",-0.17875,0.10875],[""2"",-0.18,0.06625],[""2"",-0.31375,0.01625],[""2"",-0.35625,0.07],[""2"",-0.35625,0.07625],[""3"",-0.22625,0.155],[""3"",-0.21,0.11875],[""3"",-0.20875,0.085],[""3"",-0.20125,0.07375],[""3"",-0.20125,0.08],[""4"",-0.0975,0.30125],[""4"",-0.235,0.225],[""4"",-0.27875,0.17125],[""4"",-0.2825,0.15625],[""4"",-0.28125,0.15625],[""4"",-0.28,0.15625],[""3"",-0.1925,0.085],[""3"",-0.13,0.085],[""3"",-0.1275,0.0775],[""4"",-0.25875,0.17],[""4"",-0.20375,0.0875],[""4"",-0.1925,0.0725],[""4"",-0.19875,0.08],[""4"",-0.2,0.0825],[""5"",-0.05125,0.2975],[""5"",-0.04625,0.26375],[""5"",-0.04375,0.27],[""5"",-0.04375,0.135],[""5"",-0.03625,0.06375],[""5"",-0.03375,0.07875],[""5"",-0.03375,0.08],[""6"",0.00125,0.2025],[""6"",0.04625,0.08125],[""6"",0.05375,0.075],[""6"",0.0525,0.0825],[""7"",0.10375,0.2175],[""7"",0.16,0.08],[""7"",0.16,0.0675],[""7"",0.15875,0.075],[""7"",0.15875,0.07625]]","D,A,C,B,E,G,F",11,0.513,157.308,F,D,-0.61,-0.0275,0,0,0,[],2,0.511,59.989,0,0,0,0,1,materials/merge_sort/imgs/fruits/apple,12,,,,,,,,,,,,,,,,,,,,,,,,,,,,,,,
,,,,,,,,,,,,,,,,,,,,,,,,,,,,,,,,,,,,,,,,,,,,,,,,,,,,,jl02,001,2021-10-03_19h08.50.505,seq_teaching_exp,2021.2.3,MacIntel,62.5,,,,,,,,,,,,,,,,,,,,,,,,,,,,,,,,E,A,"G,B,F,E,A,C,D",0.45625,-0.33375,1,0,0,"[""6"",""2"",""4"",""7"",""5"",""3"",""1""]","[""'C'"",""'B'"",""'E'"",""'D'"",""'A'"",""'F'"",""'G'""]","[[""1"",-0.25,0.2975],[""1"",-0.21375,0.24625],[""1"",-0.1425,0.20625],[""1"",-0.0075,0.1],[""1"",0.00125,0.08875],[""1"",-0.00125,0.095],[""2"",-0.2025,0.3075],[""2"",-0.2025,0.29],[""2"",-0.2025,0.28375],[""2"",-0.2025,0.2775],[""2"",-0.2025,0.27],[""2"",-0.2175,0.19875],[""2"",-0.2375,0.14625],[""2"",-0.24625,0.11],[""2"",-0.255,0.10625],[""3"",-0.21375,0.23],[""3"",-0.27625,0.19],[""4"",0.00875,0.25875],[""4"",0.0225,0.25125],[""4"",0.0275,0.245],[""4"",0.2025,0.15],[""4"",0.20875,0.1425],[""5"",-0.1625,0.29125],[""5"",-0.1725,0.26375],[""6"",-0.125,0.18125],[""6"",-0.12875,0.18],[""7"",-0.04375,0.29625],[""7"",-0.085,0.29625],[""1"",-0.00375,0.09125],[""1"",0.08,0.13125],[""1"",0.10875,0.14125],[""2"",-0.145,0.1075],[""2"",-0.13375,0.1075],[""6"",-0.1725,0.18375],[""6"",-0.18625,0.18375],[""7"",-0.03875,0.20375],[""7"",-0.03,0.195],[""4"",0.2925,0.145],[""1"",0.11125,0.1475],[""1"",0.19125,0.1475],[""6"",-0.19875,0.20125],[""3"",-0.30625,0.20125],[""7"",-0.0175,0.19375],[""7"",0.02625,0.15375],[""7"",0.0325,0.1475],[""2"",-0.13125,0.135],[""2"",-0.1325,0.13],[""2"",-0.13,0.12875],[""2"",-0.12625,0.13],[""2"",-0.125,0.1325],[""2"",-0.11375,0.125],[""7"",0.01625,0.14625],[""2"",-0.2225,0.1],[""7"",0.00125,0.14625],[""2"",-0.1625,0.105],[""7"",0.00375,0.155],[""7"",0.0025,0.155],[""7"",-0.065,0.06125],[""7"",-0.11,0.03625],[""2"",-0.155,0.10125],[""2"",-0.16125,0.1075],[""2"",-0.05875,0.14625],[""2"",-0.00625,0.16375],[""7"",-0.105,0.065],[""7"",-0.11,0.1425],[""7"",-0.11375,0.15875],[""7"",-0.11375,0.15625],[""2"",0.07375,0.20125],[""6"",-0.1775,0.20125],[""2"",0.08125,0.19125],[""2"",-0.0175,0.19],[""6"",-0.1375,0.2],[""6"",-0.1325,0.21125],[""6"",-0.07125,0.23875],[""6"",0.0175,0.24875],[""6"",0.0925,0.23625],[""6"",0.09125,0.23625],[""5"",-0.16875,0.265],[""5"",-0.0225,0.3125],[""5"",0.07,0.325],[""5"",0.07125,0.32375],[""3"",-0.30625,0.20375],[""3"",-0.1775,0.30125],[""3"",-0.1425,0.31625],[""7"",-0.12625,0.1525],[""7"",-0.28875,0.1525],[""7"",-0.29,0.15375],[""2"",-0.09375,0.1875],[""2"",-0.16875,0.14875],[""2"",-0.17375,0.15],[""3"",-0.14,0.31625],[""3"",-0.12625,0.315],[""3"",-0.11375,0.30125],[""3"",-0.095,0.2875],[""3"",-0.08875,0.2825],[""3"",-0.04,0.23125],[""3"",0.06875,0.14375],[""3"",0.07375,0.14125],[""6"",0.04375,0.21875],[""6"",0.00125,0.16125],[""6"",0.005,0.1525],[""6"",0.00125,0.14375],[""6"",0.00125,0.1425],[""3"",0.0825,0.14375],[""3"",0.00625,0.20875],[""3"",-0.10875,0.18375],[""3"",-0.0975,0.1525],[""3"",-0.0975,0.15],[""3"",-0.09875,0.16],[""3"",-0.01625,0.20875],[""3"",0.045,0.19625],[""3"",0.06875,0.16125],[""3"",0.07625,0.1525],[""3"",0.0775,0.1525],[""6"",-0.04125,0.14875],[""6"",-0.0475,0.14875],[""3"",0.0475,0.14875],[""3"",0.03875,0.15],[""5"",0.0725,0.3175],[""5"",0.09125,0.18625],[""5"",0.11625,0.1475],[""5"",0.11375,0.15125],[""5"",0.11375,0.1525]]","G,B,F,E,A,C,D",28,0.516,162.493,,,0.48625,-0.35125,1,0,0,[],0,0.515,4.817,0,1,1,1,1,materials/merge_sort/imgs/fruits/banana,12,,,,,,,,,,,,,,,,,,,,,,,,,,,,,,,
,,,,,,,,,,,,,,,,,,,,,,,,,,,,,,,,,,,,,,,,,,,,,,,,,,,,,jl02,001,2021-10-03_19h08.50.505,seq_teaching_exp,2021.2.3,MacIntel,62.5,,,,,,,,,,,,,,,,,,,,,,,,,,,,,,,,D,I,"D,I,J,E,A,C,B,G,F,H",0.54125,-0.36,1,0,0,"[""8"",""6"",""4"",""3"",""2"",""10"",""9"",""7"",""1"",""5""]","[""'G'"",""'C'"",""'E'"",""'J'"",""'I'"",""'H'"",""'F'"",""'B'"",""'D'"",""'A'""]","[[""1"",-0.14875,0.19625],[""1"",-0.09,0.15125],[""1"",-0.0875,0.17625],[""1"",-0.00375,0.0925],[""1"",0.00375,0.08125],[""2"",-0.19625,0.23625],[""2"",-0.24,0.0975],[""2"",-0.25,0.11375],[""3"",-0.1875,0.25875],[""3"",-0.20375,0.2525],[""4"",-0.105,0.3025],[""4"",-0.1425,0.14],[""4"",-0.1475,0.1325],[""3"",-0.20625,0.2225],[""5"",-0.09625,0.2425],[""5"",-0.1025,0.24],[""5"",-0.13,0.22],[""6"",0.025,0.28125],[""6"",0.02625,0.2775],[""6"",0.1375,0.165],[""6"",0.1475,0.16],[""7"",0.04125,0.2775],[""7"",0.18625,0.06875],[""8"",0.1025,0.31375],[""8"",0.02125,0.31375],[""8"",0.0375,0.32],[""8"",-0.06375,0.32],[""8"",-0.06875,0.325],[""8"",-0.2625,0.25875],[""8"",-0.31125,0.21875],[""9"",0.1475,0.29625],[""9"",0.1275,0.29625],[""9"",0.13,0.29625],[""9"",0.1025,0.29625],[""9"",0.08375,0.295],[""9"",-0.0075,0.3025],[""9"",-0.0075,0.3125],[""9"",-0.04375,0.3175],[""9"",-0.0025,0.32],[""9"",-0.04625,0.31375],[""9"",-0.155,0.32875],[""9"",-0.2075,0.3275],[""10"",0.2075,0.31625],[""10"",0.20125,0.32625],[""10"",0.01125,0.325],[""10"",-0.09875,0.31625],[""10"",-0.1,0.31625],[""7"",0.2,0.1125],[""7"",0.17125,0.2825],[""7"",0.16625,0.29375],[""1"",0.01,0.08],[""1"",0.06375,0.135],[""1"",0.06875,0.175],[""1"",0.06625,0.28125],[""1"",0.07875,0.28125],[""1"",0.09875,0.29],[""6"",0.1575,0.16125],[""6"",0.225,0.2375],[""6"",0.25625,0.2875],[""6"",0.2475,0.29],[""1"",0.105,0.34875],[""1"",0.105,0.38125],[""7"",0.16375,0.3375],[""7"",0.18125,0.38125],[""6"",0.2475,0.2925],[""6"",0.25125,0.36375],[""3"",-0.17875,0.215],[""5"",-0.1325,0.20375],[""3"",-0.14625,0.23125],[""3"",-0.0425,0.2475],[""3"",0.01125,0.1775],[""3"",0.00625,0.17625],[""9"",-0.20125,0.22625],[""9"",-0.2,0.11125],[""9"",-0.15875,0.05375],[""9"",-0.15375,0.05],[""4"",-0.14375,0.17],[""4"",-0.14625,0.31625],[""5"",-0.2,0.29],[""2"",-0.23875,0.23875],[""2"",-0.2425,0.2525],[""8"",-0.3125,0.22],[""3"",0.03125,0.18875],[""8"",-0.21875,0.21125],[""2"",-0.06625,0.1675],[""2"",-0.05,0.15875],[""8"",-0.22375,0.21],[""8"",-0.03875,0.24375],[""8"",0.06,0.26125],[""8"",0.065,0.26125],[""8"",0.13,0.24375],[""8"",0.15875,0.22],[""2"",-0.05875,0.15875],[""2"",-0.0075,0.11125],[""2"",0.12,0.08875],[""2"",0.125,0.08875],[""5"",-0.21,0.26375],[""5"",-0.21375,0.22875],[""5"",-0.225,0.15375],[""5"",-0.23625,0.09],[""4"",-0.1575,0.30375],[""4"",-0.295,0.17625],[""4"",-0.315,0.1375],[""10"",-0.085,0.305],[""10"",-0.01125,0.31],[""10"",0.06125,0.3],[""10"",0.13875,0.2875],[""10"",0.20125,0.285],[""10"",0.275,0.23],[""10"",0.285,0.21875],[""2"",0.12125,0.0875],[""2"",0.2225,0.0825],[""2"",0.355,0.0825],[""2"",0.35625,0.08375],[""8"",0.155,0.2075],[""8"",0.2775,0.0925],[""8"",0.2175,0.14625],[""8"",0.21875,0.13125],[""8"",0.04625,0.33875],[""8"",0.01125,0.3675],[""2"",0.37,0.08625],[""2"",0.29625,0.10875],[""3"",-0.035,0.28125],[""3"",-0.04875,0.2825],[""3"",-0.16875,0.31],[""3"",-0.1825,0.3325],[""2"",0.3125,0.10375],[""2"",0.09875,0.17375],[""2"",-0.03875,0.2825],[""2"",-0.06875,0.3275],[""2"",-0.07125,0.33125],[""10"",0.25625,0.2275],[""10"",0.215,0.2275],[""10"",0.20875,0.23375],[""10"",0.20125,0.23125],[""10"",0.135,0.22125],[""10"",0.15,0.225],[""10"",0.14125,0.225],[""10"",0.00375,0.2225],[""10"",-0.115,0.27],[""10"",-0.1275,0.30625],[""10"",-0.13,0.3075],[""4"",-0.30875,0.1325],[""4"",-0.28625,0.22875],[""4"",-0.27125,0.25625],[""5"",-0.23,0.09125],[""5"",-0.29375,0.13875],[""5"",-0.345,0.1675],[""5"",-0.34625,0.1675],[""9"",-0.19375,0.045],[""9"",-0.23875,0.045],[""9"",-0.24375,0.05],[""9"",-0.39375,0.0575]]","D,I,J,E,A,C,B,G,F,H",23,0.5,220.354,,,0.57,-0.33375,1,0,0,[],0,0.515,38.437,0,2,2,2,1,materials/merge_sort/imgs/fruits/melon,21,,,,,,,,,,,,,,,,,,,,,,,,,,,,,,,
,,,,,,,,,,,,,,,,,,,,,,,,,,,,,,,,,,,,,,,,,,,,,,,,,,,,,jl02,001,2021-10-03_19h08.50.505,seq_teaching_exp,2021.2.3,MacIntel,62.5,,,,,,,,,,,,,,,,,,,,,,,,,,,,,,,,,,,,,,,,,,,,,,,,,,,,,,,,,,,,,,,materials/merge_sort/imgs/fruits/melon,,0.04625,-0.3975,1,0,0,9.2,B,G,"G,B,D,F,E,C,A",0.45875,-0.3475,1,0,0,"[""5"",""2"",""6"",""7"",""4"",""3"",""1""]","[""'E'"",""'B'"",""'C'"",""'A'"",""'F'"",""'D'"",""'G'""]","[[""2"",-0.1875,0.2875],[""2"",-0.15875,0.26375],[""2"",-0.1525,0.25625],[""2"",-0.06,0.21375],[""2"",0.07375,0.18375],[""1"",-0.24625,0.3025],[""1"",-0.13625,0.17375],[""1"",-0.0325,0.1675],[""1"",-0.02375,0.17625],[""2"",0.0625,0.15875],[""2"",0.00875,0.12375],[""2"",-0.09875,0.11375],[""2"",-0.14,0.1325],[""3"",-0.125,0.27375],[""3"",-0.12,0.265],[""3"",0.0575,0.23],[""3"",0.09875,0.185],[""3"",0.10375,0.17125],[""3"",0.1075,0.155],[""4"",-0.085,0.29625],[""4"",0.10625,0.22],[""4"",0.1425,0.215],[""5"",-0.07625,0.295],[""5"",-0.19625,0.23375],[""6"",-0.0225,0.30875],[""6"",-0.24625,0.28625],[""6"",-0.26875,0.27375],[""7"",0.04625,0.30875],[""7"",0.03125,0.30875],[""7"",0.0075,0.3125],[""7"",0.0225,0.31875],[""7"",-0.09875,0.325],[""7"",-0.20875,0.325],[""4"",0.1525,0.23875],[""4"",0.31625,0.3675],[""4"",0.325,0.375],[""3"",0.11125,0.155],[""3"",0.17625,0.33],[""3"",0.25125,0.3825],[""3"",0.2525,0.3825],[""1"",-0.0325,0.16375],[""1"",0.085,0.31375],[""1"",0.16,0.38125],[""1"",0.16625,0.38375],[""6"",-0.2775,0.15],[""6"",-0.1775,0.03375],[""6"",-0.0175,0.0975],[""6"",-0.0075,0.10625],[""7"",-0.21625,0.32],[""7"",-0.27,0.1875],[""7"",-0.26375,0.19],[""7"",-0.22375,0.075],[""7"",-0.15625,0.03],[""5"",-0.19125,0.24375],[""5"",-0.13,0.24375],[""5"",0.04875,0.2475],[""5"",0.1475,0.19875],[""2"",-0.14,0.13125],[""2"",-0.14,0.13875],[""2"",-0.14,0.14],[""2"",-0.14,0.1375],[""2"",-0.1375,0.14625],[""2"",-0.1225,0.1775],[""2"",-0.12625,0.17625],[""2"",-0.13375,0.17],[""2"",-0.1675,0.155],[""7"",-0.16625,0.04375],[""7"",-0.1725,0.035],[""7"",-0.17125,0.03125],[""7"",-0.2325,0.05625],[""7"",-0.23875,0.0575],[""5"",0.14625,0.2075],[""5"",0.09625,0.33875],[""5"",0.095,0.33875],[""6"",0.00125,0.1325],[""6"",-0.00125,0.295],[""6"",0.00125,0.3225],[""2"",-0.16,0.165],[""2"",-0.115,0.28375],[""2"",-0.07875,0.32],[""7"",-0.25,0.14375],[""7"",-0.14625,0.32125],[""7"",-0.14375,0.32125]]","G,B,D,F,E,C,A",11,0.511,124.602,0,0,0,0,1,,,,,
,,,,,,,,,,,,,,,,,,,,,,,,,,,,,,,,,,,,,,,,,,,,,,,,,,,,,jl02,001,2021-10-03_19h08.50.505,seq_teaching_exp,2021.2.3,MacIntel,62.5,,,,,,,,,,,,,,,,,,,,,,,,,,,,,,,,,,,,,,,,,,,,,,,,,,,,,,,,,,,,,,,materials/merge_sort/imgs/fruits/banana,,,,,,,,F,B,"E,G,C,F,B,D,A",0.56375,-0.33125,1,0,0,"[""7"",""2"",""6"",""3"",""5"",""4"",""1""]","[""'A'"",""'G'"",""'D'"",""'C'"",""'B'"",""'F'"",""'E'""]","[[""1"",-0.245,0.16625],[""1"",-0.2075,0.14125],[""1"",-0.1075,0.14875],[""1"",-0.01125,0.1375],[""1"",-0.005,0.1225],[""1"",-0.0075,0.1225],[""2"",-0.21625,0.21625],[""2"",-0.14125,0.12],[""2"",-0.1375,0.1125],[""3"",-0.1575,0.3],[""3"",-0.2125,0.15625],[""4"",-0.10875,0.29125],[""4"",-0.245,0.2425],[""4"",-0.28,0.21375],[""5"",-0.05375,0.2925],[""5"",-0.12125,0.2675],[""5"",-0.1475,0.24],[""5"",-0.1475,0.23875],[""6"",-0.00125,0.30875],[""6"",-0.03125,0.30875],[""6"",-0.03,0.32],[""6"",-0.165,0.30625],[""6"",-0.1675,0.305],[""7"",-0.0425,0.29],[""7"",-0.04625,0.285],[""1"",0.1425,0.3175],[""1"",0.1625,0.34],[""1"",0.16375,0.345],[""1"",0.21125,0.345],[""1"",0.21375,0.345],[""1"",0.29125,0.35875],[""1"",0.315,0.38],[""7"",-0.04125,0.2525],[""7"",-0.0125,0.10375],[""7"",0.005,0.0825],[""6"",-0.16375,0.315],[""6"",-0.21,0.315],[""6"",-0.2125,0.3125],[""6"",-0.2,0.32],[""6"",-0.06875,0.3175],[""6"",0.0375,0.31125],[""6"",0.1675,0.19375],[""6"",0.17375,0.17875],[""5"",-0.1575,0.23],[""5"",-0.1375,0.23],[""5"",-0.12,0.25125],[""5"",-0.0775,0.25375],[""5"",-0.08625,0.25875],[""5"",0.01,0.25125],[""5"",0.08375,0.25625],[""4"",-0.285,0.23],[""4"",-0.23625,0.26625],[""4"",-0.12625,0.32875],[""4"",-0.08,0.34],[""4"",-0.05625,0.3475],[""4"",0.1025,0.33],[""4"",0.10625,0.3325],[""3"",-0.20125,0.17625],[""3"",-0.04125,0.20375],[""3"",0.045,0.21],[""3"",0.09375,0.18125],[""3"",0.09375,0.18],[""2"",-0.14125,0.10875],[""2"",-0.07625,0.04125],[""2"",-0.05875,0.04875],[""2"",-0.0375,0.04875],[""2"",-0.0325,0.04875],[""2"",0.1025,0.06],[""2"",0.12375,0.06875],[""7"",-0.00125,0.09],[""7"",-0.0075,0.0975],[""7"",-0.2125,0.2675],[""7"",-0.32375,0.36875],[""7"",-0.33875,0.385],[""4"",0.10625,0.32],[""4"",0.0125,0.31625],[""4"",-0.00625,0.21],[""4"",-0.01125,0.09875],[""5"",0.07125,0.26375],[""5"",0.045,0.21125],[""5"",0.03,0.15125],[""5"",0.02875,0.1525],[""3"",0.1,0.1875],[""3"",0.0825,0.2125],[""2"",0.1225,0.07375],[""2"",-0.0275,0.03],[""2"",-0.125,0.1275],[""2"",-0.22625,0.33375],[""2"",-0.2775,0.385],[""4"",-0.085,0.1975],[""4"",-0.1375,0.35375],[""4"",-0.185,0.37375],[""6"",0.10375,0.265],[""6"",0.09875,0.27375],[""6"",-0.07,0.3475],[""6"",-0.0925,0.35375],[""5"",0.03375,0.2325],[""5"",0.03375,0.295],[""3"",0.08625,0.28125],[""3"",0.08875,0.28125]]","E,G,C,F,B,D,A",25,0.5,152.955,0,1,1,1,1,,,,,
,,,,,,,,,,,,,,,,,,,,,,,,,,,,,,,,,,,,,,,,,,,,,,,,,,,,,jl02,001,2021-10-03_19h08.50.505,seq_teaching_exp,2021.2.3,MacIntel,62.5,,,,,,,,,,,,,,,,,,,,,,,,,,,,,,,,,,,,,,,,,,,,,,,,,,,,,,,,,,,,,,,materials/merge_sort/imgs/fruits/apple,,,,,,,,C,E,"E,G,C,A,D,B,F",0.4525,-0.33875,1,0,0,"[""7"",""5"",""3"",""6"",""1"",""4"",""2""]","[""'B'"",""'F'"",""'E'"",""'D'"",""'G'"",""'A'"",""'C'""]","[[""6"",-0.0075,0.29875],[""6"",-0.0025,0.135],[""6"",-0.00125,0.09],[""1"",-0.20375,0.23],[""1"",-0.18,0.22125],[""1"",-0.18875,0.22875],[""1"",-0.01625,0.19625],[""1"",0.065,0.1325],[""1"",0.0725,0.09625],[""1"",0.0725,0.0925],[""2"",-0.0975,0.2425],[""2"",-0.04375,0.23125],[""2"",-0.03375,0.23],[""2"",-0.0275,0.23],[""2"",-0.02625,0.24875],[""2"",0.11875,0.19375],[""2"",0.165,0.17375],[""2"",0.17,0.1925],[""2"",0.2275,0.14875],[""2"",0.255,0.11875],[""7"",0.05125,0.2975],[""7"",-0.0025,0.2425],[""7"",-0.065,0.195],[""7"",-0.115,0.1175],[""7"",-0.1225,0.1025],[""7"",-0.15875,0.11125],[""3"",-0.165,0.2775],[""3"",-0.21875,0.1825],[""3"",-0.22625,0.17],[""4"",-0.1025,0.3025],[""4"",-0.015,0.23125],[""4"",0.03125,0.2375],[""4"",0.05375,0.2375],[""4"",0.11,0.24125],[""4"",0.12625,0.24125],[""5"",-0.10375,0.29625],[""5"",-0.2025,0.2775],[""5"",-0.2,0.27625],[""5"",-0.22,0.27],[""3"",-0.24375,0.18875],[""3"",-0.28625,0.20625],[""7"",-0.15875,0.12625],[""7"",-0.10125,0.11625],[""7"",-0.09875,0.115],[""5"",-0.2125,0.12],[""5"",-0.17875,0.1025],[""5"",-0.1775,0.10625],[""3"",-0.2925,0.145],[""3"",-0.25625,0.11375],[""1"",0.16,0.095],[""1"",0.1775,0.095],[""4"",0.12375,0.14625],[""4"",0.1075,0.11],[""4"",0.10625,0.11],[""4"",0.10375,0.10625],[""2"",0.2625,0.1325],[""2"",0.26875,0.18625],[""2"",0.27375,0.19125],[""2"",0.285,0.1925],[""2"",0.27,0.0875],[""2"",0.26,0.1025]]","E,G,C,A,D,B,F",11,0.515,121.973,0,2,2,2,1,,,,,
,,,,,,,,,,,,,,,,,,,,,,,,,,,,,,,,,,,,,,,,,,,,,,,,,,,,,jl02,001,2021-10-03_19h08.50.505,seq_teaching_exp,2021.2.3,MacIntel,62.5,,,,,,,,,,,,,,,,,,,,,,,,,,,,,,,,,,,,,,,,,,,,,,,,,,,,,,,,,,,,,,,materials/merge_sort/imgs/fruits/banana,,,,,,,,G,F,"F,G,C,E,B,A,D",0.5175,-0.35375,1,0,0,"[""4"",""7"",""2"",""6"",""3"",""5"",""1""]","[""'E'"",""'D'"",""'G'"",""'A'"",""'C'"",""'B'"",""'F'""]","[[""4"",-0.09125,0.24875],[""4"",-0.03625,0.15875],[""4"",-0.01875,0.1275],[""4"",-0.01,0.11625],[""4"",-0.00375,0.11],[""6"",0.00625,0.31125],[""6"",-0.065,0.175],[""6"",-0.09125,0.1375],[""6"",-0.115,0.13125],[""1"",-0.2525,0.27],[""1"",-0.2525,0.14],[""2"",-0.1875,0.2825],[""2"",-0.16875,0.27875],[""2"",-0.15625,0.275],[""2"",-0.16,0.27625],[""2"",-0.1425,0.26125],[""2"",-0.14125,0.2675],[""2"",0.01,0.21125],[""2"",0.01625,0.21],[""2"",0.08125,0.19625],[""2"",0.13625,0.1675],[""3"",-0.14625,0.3025],[""3"",-0.18625,0.22625],[""3"",-0.18875,0.22125],[""5"",-0.05125,0.30875],[""5"",-0.08875,0.30875],[""5"",-0.09875,0.32],[""5"",-0.205,0.32],[""7"",0.055,0.2925],[""7"",-0.10875,0.28875],[""7"",-0.115,0.28875],[""4"",0.065,0.2625],[""4"",0.19,0.38875],[""4"",0.2,0.40125],[""2"",0.135,0.165],[""2"",0.28,0.33625],[""2"",0.30875,0.395],[""2"",0.30625,0.395],[""5"",-0.1675,0.3175],[""5"",-0.00625,0.25125],[""5"",-0.0075,0.13625],[""7"",-0.115,0.29625],[""7"",-0.21875,0.29375],[""7"",-0.2225,0.29125],[""1"",-0.16625,0.0525],[""1"",-0.15875,0.055],[""1"",-0.08125,0.055],[""1"",-0.04,0.0625],[""1"",-0.04,0.06625],[""1"",0.0025,0.06625],[""1"",0.01,0.07625],[""1"",0.0625,0.0875],[""6"",-0.08625,0.205],[""6"",-0.07,0.2175],[""6"",-0.08625,0.22875],[""6"",-0.01125,0.22875],[""6"",0.07375,0.225],[""5"",-0.015,0.19625],[""5"",-0.1025,0.37],[""5"",-0.0925,0.37875],[""5"",-0.08375,0.3825],[""6"",0.07375,0.26125],[""6"",0.1175,0.385],[""6"",0.1225,0.3925],[""1"",0.0675,0.14],[""1"",0.015,0.3525],[""1"",0.01,0.38125],[""3"",-0.1875,0.20125],[""3"",-0.1725,0.31875],[""3"",-0.17,0.3275]]","F,G,C,E,B,A,D",12,0.515,97.127,0,3,3,3,1,,,,,
,,,,,,,,,,,,,,,,,,,,,,,,,,,,,,,,,,,,,,,,,,,,,,,,,,,,,jl02,001,2021-10-03_19h08.50.505,seq_teaching_exp,2021.2.3,MacIntel,62.5,,,,,,,,,,,,,,,,,,,,,,,,,,,,,,,,,,,,,,,,,,,,,,,,,,,,,,,,,,,,,,,materials/merge_sort/imgs/fruits/apple,,,,,,,,I,H,"F,D,A,B,E,H,I,C,G,J",0.48,-0.335,1,0,0,"[""5"",""7"",""6"",""1"",""4"",""9"",""8"",""10"",""2"",""3""]","[""'E'"",""'I'"",""'H'"",""'F'"",""'B'"",""'G'"",""'C'"",""'J'"",""'D'"",""'A'""]","[[""1"",-0.25125,0.3],[""1"",-0.2175,0.1675],[""1"",-0.13,0.11375],[""1"",-0.08125,0.10625],[""1"",-0.00375,0.0575],[""1"",0.0025,0.05375],[""2"",-0.205,0.2975],[""2"",-0.1,0.17875],[""2"",-0.07625,0.18375],[""2"",-0.02375,0.1775],[""2"",0.01125,0.185],[""2"",0.13,0.14375],[""2"",0.1475,0.12125],[""3"",-0.14375,0.2975],[""3"",-0.1375,0.27],[""3"",-0.01625,0.1725],[""3"",0.06625,0.1375],[""4"",-0.09,0.3025],[""4"",-0.13,0.1825],[""5"",-0.0425,0.3025],[""5"",-0.065,0.2875],[""5"",-0.13625,0.2375],[""5"",-0.2,0.1725],[""6"",-0.005,0.3],[""6"",-0.005,0.28875],[""6"",0.05375,0.22375],[""6"",0.12625,0.195],[""6"",0.1275,0.195],[""7"",0.045,0.285],[""7"",0.0525,0.23125],[""7"",0.0575,0.22625],[""8"",0.09875,0.235],[""8"",0.11625,0.11875],[""8"",0.10875,0.08375],[""8"",0.10375,0.07875],[""9"",0.15375,0.295],[""9"",0.06625,0.3075],[""9"",-0.00875,0.31625],[""9"",-0.04625,0.3175],[""9"",-0.1425,0.28],[""10"",0.2,0.30375],[""10"",0.115,0.32],[""10"",0.025,0.32125],[""10"",-0.015,0.3275],[""10"",-0.16625,0.3075],[""10"",-0.24,0.2875],[""10"",-0.235,0.27375],[""10"",-0.2325,0.27375],[""10"",-0.24125,0.295],[""10"",-0.25125,0.33],[""10"",-0.24875,0.3275],[""9"",-0.275,0.28375],[""9"",-0.3225,0.3125],[""5"",-0.19125,0.19125],[""5"",-0.16375,0.29125],[""5"",-0.16125,0.295],[""4"",-0.2375,0.1875],[""4"",-0.34125,0.1875],[""4"",-0.35,0.1875],[""4"",-0.35625,0.19375],[""4"",-0.37875,0.2475],[""4"",-0.37875,0.26375],[""4"",-0.37625,0.2675],[""1"",-0.00375,0.12375],[""1"",-0.0775,0.27125],[""1"",-0.08625,0.27875],[""7"",0.045,0.20625],[""7"",0.025,0.1425],[""7"",0.09125,0.26125],[""7"",0.1575,0.2575],[""7"",0.15625,0.27125],[""6"",0.17875,0.20625],[""6"",0.25375,0.255],[""2"",0.15,0.1425],[""2"",0.04,0.20125],[""2"",0.03625,0.20375],[""3"",0.06,0.14625],[""3"",0.0675,0.16125],[""8"",0.2125,0.10625],[""8"",0.28875,0.12125],[""8"",0.30125,0.21375],[""2"",0.03875,0.2175],[""2"",0.09375,0.24125],[""2"",0.10625,0.2525],[""3"",0.03625,0.2075],[""3"",0.01875,0.22375]]","F,D,A,B,E,H,I,C,G,J",19,0.516,144.318,0,4,4,4,1,,,,,
,,,,,,,,,,,,,,,,,,,,,,,,,,,,,,,,,,,,,,,,,,,,,,,,,,,,,jl02,001,2021-10-03_19h08.50.505,seq_teaching_exp,2021.2.3,MacIntel,62.5,,,,,,,,,,,,,,,,,,,,,,,,,,,,,,,,,,,,,,,,,,,,,,,,,,,,,,,,,,,,,,,,,,,,,,,,,,,,,,,,,,,,,,,,,,,0.48,-0.335,1,0,0
