background_mouse.x,background_mouse.y,background_mouse.leftButton,background_mouse.midButton,background_mouse.rightButton,demographic_age,demographic_education,demographic_gender,background.tEnd,intro_mouse.x,intro_mouse.y,intro_mouse.leftButton,intro_mouse.midButton,intro_mouse.rightButton,intro.tEnd,hint_mouse.x,hint_mouse.y,hint_mouse.leftButton,hint_mouse.midButton,hint_mouse.rightButton,hint.tEnd,merge_intro_mouse.x,merge_intro_mouse.y,merge_intro_mouse.leftButton,merge_intro_mouse.midButton,merge_intro_mouse.rightButton,merge_intro.tEnd,merge_train_scale_right.text,merge_train_scale_left.text,merge_train_mouse.x,merge_train_mouse.y,merge_train_mouse.leftButton,merge_train_mouse.midButton,merge_train_mouse.rightButton,merge_train_mouse.clicked_name,merge_train.tStart,mc_order,merge_train_compareN,merge_train_labels,merge_train_input,merge_train_compare_records,merge_train_mouse_clicked,merge_train.tEnd,merge_expl_mouse.x,merge_expl_mouse.y,merge_expl_mouse.leftButton,merge_expl_mouse.midButton,merge_expl_mouse.rightButton,merge_expl.tStart,merge_expl.tEnd,TRAIN_1.thisRepN,TRAIN_1.thisTrialN,TRAIN_1.thisN,TRAIN_1.thisIndex,TRAIN_1.ran,img_path,input,encryption,mc_path_1,mc_path_2,participant,session,date,expName,psychopyVersion,OS,frameRate,merge_test_intro_mouse.x,merge_test_intro_mouse.y,merge_test_intro_mouse.leftButton,merge_test_intro_mouse.midButton,merge_test_intro_mouse.rightButton,merge_test_intro.tEnd,merge_test_scale_right.text,merge_test_scale_left.text,merge_test_res.text,merge_test_mouse.x,merge_test_mouse.y,merge_test_mouse.leftButton,merge_test_mouse.midButton,merge_test_mouse.rightButton,merge_test_input,merge_test_labels,merge_test_compareN,merge_test_compare_records,merge_test.tStart,merge_test.tEnd,TEST_1.thisRepN,TEST_1.thisTrialN,TEST_1.thisN,TEST_1.thisIndex,TEST_1.ran,sort_intro_mouse.x,sort_intro_mouse.y,sort_intro_mouse.leftButton,sort_intro_mouse.midButton,sort_intro_mouse.rightButton,sort_intro.tEnd,sort_train_scale_right.text,sort_train_scale_left.text,sort_train_res.text,sort_train_mouse.x,sort_train_mouse.y,sort_train_mouse.leftButton,sort_train_mouse.midButton,sort_train_mouse.rightButton,sort_train_input,sort_train_labels,sort_train_trace,sort_train_compareN,sort_train.tStart,sort_train.tEnd,sort_train_compare_records,sort_expl_scale_right.text,sort_expl_scale_left.text,sort_expl_mouse.x,sort_expl_mouse.y,sort_expl_mouse.leftButton,sort_expl_mouse.midButton,sort_expl_mouse.rightButton,sort_expl_trace,sort_expl_compareN,sort_expl_compare_records,sort_expl.tStart,sort_expl.tEnd,TRAIN_2.thisRepN,TRAIN_2.thisTrialN,TRAIN_2.thisN,TRAIN_2.thisIndex,TRAIN_2.ran,img_path_base,ms_compare,sort_test_intro_mouse.x,sort_test_intro_mouse.y,sort_test_intro_mouse.leftButton,sort_test_intro_mouse.midButton,sort_test_intro_mouse.rightButton,sort_test_intro.tEnd,sort_test_scale_right.text,sort_test_scale_left.text,sort_test_res.text,sort_test_mouse.x,sort_test_mouse.y,sort_test_mouse.leftButton,sort_test_mouse.midButton,sort_test_mouse.rightButton,sort_test_input,sort_test_labels,sort_test_trace,sort_test_compare_records,sort_test_compareN,sort_test.tStart,sort_test.tEnd,TEST_2.thisRepN,TEST_2.thisTrialN,TEST_2.thisN,TEST_2.thisIndex,TEST_2.ran,exp_check_res.text,exp_check_mouse.x,exp_check_mouse.y,exp_check_mouse.leftButton,exp_check_mouse.midButton,exp_check_mouse.rightButton,exp_check.tEnd,debrief_mouse.x,debrief_mouse.y,debrief_mouse.leftButton,debrief_mouse.midButton,debrief_mouse.rightButton
-0.013744846,-0.404662001,1,0,0,_18_24,high_school_equivalent,male,14.2316,-0.01350179,-0.371662394,1,0,0,19.4623,-0.013926663,-0.41472663,1,0,0,6.4154,-0.060292291,-0.383330214,1,0,0,26.8477,B,A,0.518637424,-0.39234748,1,0,0,merge_train_btn_2,0.5147,"[0,1]",1,"[""'A'"",""'B'""]","[""4"",""2""]","[[""A"",""B""]]","[""merge_train_btn_2""]",29.5309,0.319888373,-0.417918633,1,0,0,0.5065,13.0725,0,0,0,0,1,materials/merge_sort/imgs/merge_train/merge_train_ex_1.png,,,materials/merge_sort/imgs/merge_train/merge_train_ex_1_1_correct.png,materials/merge_sort/imgs/merge_train/merge_train_ex_1_1_wrong.png,000,001,2021-10-18_20h25.17.400,seq_teaching_exp,2021.2.3,MacIntel,60.0024001,,,,,,,,,,,,,,,,,,,,,,,,,,,,,,,,,,,,,,,,,,,,,,,,,,,,,,,,,,,,,,,,,,,,,,,,,,,,,,,,,,,,,,,,,,,,,,,,,,,,,,,
,,,,,,,,,,,,,,,,,,,,,,,,,,,C,B,0.506028646,-0.237967529,1,0,0,merge_train_btn_1,0.5083,"[1,0]",4,"[""'A'"",""'B'"",""'D'"",""'C'""]","[""1"",""4"",""2"",""3""]","[[""C"",""D""],[""A"",""D""],[""B"",""D""],[""B"",""C""]]","[""merge_train_btn_1""]",40.6066,0.377164985,-0.417327135,1,0,0,0.5146,3.6644,0,1,1,1,1,materials/merge_sort/imgs/merge_train/merge_train_ex_2.png,,,materials/merge_sort/imgs/merge_train/merge_train_ex_2_1_correct.png,materials/merge_sort/imgs/merge_train/merge_train_ex_2_1_wrong.png,000,001,2021-10-18_20h25.17.400,seq_teaching_exp,2021.2.3,MacIntel,60.0024001,,,,,,,,,,,,,,,,,,,,,,,,,,,,,,,,,,,,,,,,,,,,,,,,,,,,,,,,,,,,,,,,,,,,,,,,,,,,,,,,,,,,,,,,,,,,,,,,,,,,,,,
,,,,,,,,,,,,,,,,,,,,,,,,,,,C,B,0.44219279,-0.422873467,1,0,0,merge_train_btn_2,0.5084,"[1,0]",1,"[""'A'"",""'B'"",""'D'"",""'C'""]","[""1"",""4"",""2"",""3""]","[[""B"",""C""]]","[""merge_train_btn_2""]",9.6582,0.352561578,-0.422569512,1,0,0,0.5157,2.5488,0,2,2,2,1,materials/merge_sort/imgs/merge_train/merge_train_ex_2.png,,,materials/merge_sort/imgs/merge_train/merge_train_ex_2_2_correct.png,materials/merge_sort/imgs/merge_train/merge_train_ex_2_2_wrong.png,000,001,2021-10-18_20h25.17.400,seq_teaching_exp,2021.2.3,MacIntel,60.0024001,,,,,,,,,,,,,,,,,,,,,,,,,,,,,,,,,,,,,,,,,,,,,,,,,,,,,,,,,,,,,,,,,,,,,,,,,,,,,,,,,,,,,,,,,,,,,,,,,,,,,,,
,,,,,,,,,,,,,,,,,,,,,,,,,,,E,B,0.593203396,-0.384486423,1,0,0,merge_train_btn_2,0.5061,"[1,0]",1,"[""'C'"",""'D'"",""'B'"",""'A'"",""'G'"",""'E'"",""'F'""]","[""1"",""2"",""5"",""7"",""3"",""4"",""6""]","[[""B"",""E""]]","[""merge_train_btn_2""]",7.9386,0.337372979,-0.395435452,1,0,0,0.5004,1.6665,0,3,3,3,1,materials/merge_sort/imgs/merge_train/merge_train_ex_5.png,,,materials/merge_sort/imgs/merge_train/merge_train_ex_5_1_correct.png,materials/merge_sort/imgs/merge_train/merge_train_ex_5_1_wrong.png,000,001,2021-10-18_20h25.17.400,seq_teaching_exp,2021.2.3,MacIntel,60.0024001,,,,,,,,,,,,,,,,,,,,,,,,,,,,,,,,,,,,,,,,,,,,,,,,,,,,,,,,,,,,,,,,,,,,,,,,,,,,,,,,,,,,,,,,,,,,,,,,,,,,,,,
,,,,,,,,,,,,,,,,,,,,,,,,,,,B,F,0.579630669,-0.420880195,1,0,0,merge_train_btn_2,0.5152,"[0,1]",1,"[""'C'"",""'D'"",""'B'"",""'A'"",""'G'"",""'E'"",""'F'""]","[""1"",""2"",""5"",""7"",""3"",""4"",""6""]","[[""F"",""B""]]","[""merge_train_btn_2""]",4.6493,0.392854275,-0.408353068,1,0,0,0.5154,1.5654,0,4,4,4,1,materials/merge_sort/imgs/merge_train/merge_train_ex_5.png,,,materials/merge_sort/imgs/merge_train/merge_train_ex_5_2_correct.png,materials/merge_sort/imgs/merge_train/merge_train_ex_5_2_wrong.png,000,001,2021-10-18_20h25.17.400,seq_teaching_exp,2021.2.3,MacIntel,60.0024001,,,,,,,,,,,,,,,,,,,,,,,,,,,,,,,,,,,,,,,,,,,,,,,,,,,,,,,,,,,,,,,,,,,,,,,,,,,,,,,,,,,,,,,,,,,,,,,,,,,,,,,
,,,,,,,,,,,,,,,,,,,,,,,,,,,F,A,0.40949707,-0.380199585,1,0,0,merge_train_btn_2,0.5159,"[0,1]",1,"[""'C'"",""'D'"",""'B'"",""'A'"",""'G'"",""'E'"",""'F'""]","[""1"",""2"",""5"",""7"",""3"",""4"",""6""]","[[""A"",""F""]]","[""merge_train_btn_2""]",5.4998,0.361862793,-0.44108039,1,0,0,0.5156,1.5484,0,5,5,5,1,materials/merge_sort/imgs/merge_train/merge_train_ex_5.png,,,materials/merge_sort/imgs/merge_train/merge_train_ex_5_3_correct.png,materials/merge_sort/imgs/merge_train/merge_train_ex_5_3_wrong.png,000,001,2021-10-18_20h25.17.400,seq_teaching_exp,2021.2.3,MacIntel,60.0024001,,,,,,,,,,,,,,,,,,,,,,,,,,,,,,,,,,,,,,,,,,,,,,,,,,,,,,,,,,,,,,,,,,,,,,,,,,,,,,,,,,,,,,,,,,,,,,,,,,,,,,,
,,,,,,,,,,,,,,,,,,,,,,,,,,,,,,,,,,,,,,,,,,,,,,,,,,,,,,,materials/merge_sort/imgs/merge_test/merge_test_ex_1.png,,,,,000,001,2021-10-18_20h25.17.400,seq_teaching_exp,2021.2.3,MacIntel,60.0024001,0.028817003,-0.417346666,1,0,0,44.6319,E,B,"C,A,D,E,B",0.476562843,-0.355318648,1,0,0,"[""1"",""2"",""5"",""3"",""4""]","[""'C'"",""'A'"",""'B'"",""'D'"",""'E'""]",5,"[[""A"",""C""],[""C"",""D""],[""A"",""D""],[""B"",""D""],[""B"",""E""]]",0.5029,60.4189,0,0,0,0,1,,,,,,,,,,,,,,,,,,,,,,,,,,,,,,,,,,,,,,,,,,,,,,,,,,,,,,,,,,,,,,,,,,,,,,,,,,,,,,
,,,,,,,,,,,,,,,,,,,,,,,,,,,,,,,,,,,,,,,,,,,,,,,,,,,,,,,materials/merge_sort/imgs/merge_test/merge_test_ex_2.png,,,,,000,001,2021-10-18_20h25.17.400,seq_teaching_exp,2021.2.3,MacIntel,60.0024001,,,,,,,A,C,"D,E,B,A,C",0.518077036,-0.371422071,1,0,0,"[""3"",""4"",""5"",""1"",""2""]","[""'B'"",""'A'"",""'C'"",""'D'"",""'E'""]",11,"[[""B"",""D""],[""A"",""D""],[""B"",""D""],[""B"",""D""],[""B"",""D""],[""B"",""D""],[""B"",""D""],[""B"",""D""],[""B"",""E""],[""B"",""A""],[""C"",""A""]]",0.5039,41.6385,0,1,1,1,1,,,,,,,,,,,,,,,,,,,,,,,,,,,,,,,,,,,,,,,,,,,,,,,,,,,,,,,,,,,,,,,,,,,,,,,,,,,,,,
,,,,,,,,,,,,,,,,,,,,,,,,,,,,,,,,,,,,,,,,,,,,,,,,,,,,,,,materials/merge_sort/imgs/merge_test/merge_test_ex_3.png,,,,,000,001,2021-10-18_20h25.17.400,seq_teaching_exp,2021.2.3,MacIntel,60.0024001,,,,,,,E,C,"F,D,A,E,C,B",0.551410118,-0.345657606,1,0,0,"[""3"",""5"",""6"",""1"",""2"",""4""]","[""'A'"",""'C'"",""'B'"",""'F'"",""'D'"",""'E'""]",7,"[[""A"",""F""],[""A"",""D""],[""A"",""D""],[""A"",""D""],[""A"",""D""],[""A"",""E""],[""C"",""E""]]",0.5036,24.0536,0,2,2,2,1,,,,,,,,,,,,,,,,,,,,,,,,,,,,,,,,,,,,,,,,,,,,,,,,,,,,,,,,,,,,,,,,,,,,,,,,,,,,,,
,,,,,,,,,,,,,,,,,,,,,,,,,,,,,,,,,,,,,,,,,,,,,,,,,,,,,,,materials/merge_sort/imgs/merge_test/merge_test_ex_4.png,,,,,000,001,2021-10-18_20h25.17.400,seq_teaching_exp,2021.2.3,MacIntel,60.0024001,,,,,,,F,A,"E,D,B,G,C,F,A",0.452226103,-0.334370388,1,0,0,"[""2"",""3"",""5"",""7"",""1"",""4"",""6""]","[""'D'"",""'B'"",""'C'"",""'A'"",""'E'"",""'G'"",""'F'""]",10,"[[""D"",""E""],[""D"",""E""],[""D"",""E""],[""D"",""G""],[""B"",""G""],[""B"",""G""],[""B"",""G""],[""C"",""G""],[""C"",""F""],[""A"",""F""]]",0.5061,34.0041,0,3,3,3,1,,,,,,,,,,,,,,,,,,,,,,,,,,,,,,,,,,,,,,,,,,,,,,,,,,,,,,,,,,,,,,,,,,,,,,,,,,,,,,
,,,,,,,,,,,,,,,,,,,,,,,,,,,,,,,,,,,,,,,,,,,,,,,,,,,,,,,materials/merge_sort/imgs/merge_test/merge_test_ex_5.png,,,,,000,001,2021-10-18_20h25.17.400,seq_teaching_exp,2021.2.3,MacIntel,60.0024001,,,,,,,F,D,"C,E,G,A,B,D,F",0.518741736,-0.328234812,1,0,0,"[""1"",""4"",""5"",""6"",""2"",""3"",""7""]","[""'C'"",""'A'"",""'B'"",""'D'"",""'E'"",""'G'"",""'F'""]",13,"[[""C"",""E""],[""A"",""E""],[""A"",""G""],[""A"",""G""],[""A"",""G""],[""A"",""G""],[""A"",""F""],[""B"",""F""],[""B"",""F""],[""B"",""F""],[""D"",""F""],[""D"",""F""],[""D"",""F""]]",0.5151,49.8489,0,4,4,4,1,,,,,,,,,,,,,,,,,,,,,,,,,,,,,,,,,,,,,,,,,,,,,,,,,,,,,,,,,,,,,,,,,,,,,,,,,,,,,,
,,,,,,,,,,,,,,,,,,,,,,,,,,,,,,,,,,,,,,,,,,,,,,,,,,,,,,,,,,,,000,001,2021-10-18_20h25.17.400,seq_teaching_exp,2021.2.3,MacIntel,60.0024001,,,,,,,,,,,,,,,,,,,,,,,,,,-0.06464926,-0.416904149,1,0,0,69.0053,F,C,"E,F,C,D,A,B",0.501333515,-0.361478227,1,0,0,"[""5"",""4"",""6"",""3"",""1"",""2""]","[""'A'"",""'D'"",""'B'"",""'C'"",""'E'"",""'F'""]","[[""1"",-0.24399189466840765,0.3079951854234331],[""1"",-0.24399189466840765,0.25893127784300385],[""2"",-0.20829721515098315,0.287360759263628],[""2"",-0.13577339086639748,0.23842072218991398],[""2"",0.025491950217257725,0.19885712527157215],[""2"",0.04256722096646769,0.18798558095867715],[""2"",0.024270647027519313,0.1782714758026466],[""1"",-0.26209781946760885,0.2571093527118811],[""1"",-0.22932091187895015,0.2571093527118811],[""1"",-0.20756265018763168,0.24514963385764132],[""1"",-0.15298856242319173,0.16942780741145103],[""1"",-0.056480493438377806,0.15977743770299332],[""1"",0.1185812789402651,0.1995823463697112],[""1"",0.10067594721076194,0.17614257469605865],[""1"",0.07420794883470856,0.18835252054621665],[""1"",0.033328795700930475,0.19145399800847085],[""3"",-0.18733283910858498,0.29895448148920295],[""3"",-0.2465609432606215,0.3808735836757703],[""3"",-0.2661358265394575,0.3906415017803064],[""3"",-0.1362022657072946,0.2739510268307804],[""1"",0.05939260761389572,0.20293280783663975],[""1"",0.05992966555477528,0.20185869195488063],[""1"",0.03494168399425035,0.20185869195488063],[""3"",-0.1954659451259656,0.2753232034404626],[""3"",-0.2547383683451106,0.362217463804095],[""3"",-0.26493578278616575,0.39358923408422575],[""3"",-0.2665162675836113,0.38767531748568074],[""3"",-0.2665162675836113,0.38723281260286824],[""1"",0.02736415220110604,0.1779571704650193],[""1"",0.0029433175419153793,0.1779571704650193],[""3"",-0.2511541816625702,0.39804319317421216],[""3"",-0.2528462785013606,0.3071917844622323],[""3"",-0.24338848671216642,0.21025154028045998],[""1"",-0.004589895184120435,0.16942454991715677],[""1"",-0.08192006657632549,0.20402303974280198],[""1"",-0.151182624731171,0.2466193638490827],[""1"",-0.23607378327444697,0.31034070990058815],[""1"",-0.28735617305455585,0.3940465048457799],[""1"",-0.25672063934669065,0.38203670201676615],[""1"",-0.2639751648635007,0.38105782498134655],[""1"",-0.26637199487579005,0.38373314932491004],[""1"",-0.16723958561929425,0.24456787109375],[""1"",-0.12882644138979107,0.21839900498979548],[""1"",-0.12882644138979107,0.21803249401992628],[""2"",-0.016998976803897472,0.19457797789841555],[""2"",-0.06999995199482092,0.21628862016656425],[""3"",-0.24191841382658882,0.21436948454781865],[""3"",-0.16592630107751052,0.12048245547862535],[""3"",-0.0398693299025632,0.12308446476968486],[""3"",-0.0398693299025632,0.12343876013595066],[""1"",-0.13505314173323385,0.2132491208194347],[""1"",-0.14016963658707865,0.17657204960169418],[""1"",-0.14070678025149227,0.15553768029373682],[""1"",-0.1395531129301264,0.15231087502468837],[""1"",-0.13921004734682232,0.15231087502468837],[""1"",-0.1377454607674245,0.15231087502468837],[""1"",-0.1156739652826545,0.14805045824372368],[""1"",-0.09893490223402387,0.12371731875987535],[""1"",-0.10665199194061623,0.1227744027469935],[""1"",-0.10736958364422401,0.1227744027469935],[""2"",-0.06355397085125526,0.22238849254136675],[""2"",-0.14229609457294592,0.14061304156699878],[""2"",-0.1521633876843399,0.10783034763979109],[""2"",-0.16154685716950493,0.11433770683374297],[""2"",-0.16868128401509833,0.12061635563882549],[""2"",-0.17371411269970155,0.1344858662465985],[""4"",-0.23069506012991572,0.17846701118383515],[""4"",-0.23705711793363765,0.1313539140679863],[""4"",-0.23758757516239468,0.12930250703618767],[""5"",-0.05717708287614115,0.3075294066011236],[""4"",-0.2570142424508427,0.16365132706888605],[""5"",-0.10405525464690134,0.2983699755722217],[""4"",-0.2915573977352528,0.10995474826084094],[""4"",-0.2549097296896945,0.13334184282281425],[""4"",-0.21317248397998595,0.13769681266184602],[""5"",-0.14044892386104282,0.2874630703015274],[""5"",-0.20768000570575842,0.2944384371296743],[""5"",-0.24201279543758777,0.17142533720209358],[""5"",-0.2503584958194347,0.1402114268099324]]",13,0.5159,115.0638,"[[""B"",""A""],[""D"",""A""],[""D"",""A""],[""D"",""A""],[""D"",""C""],[""D"",""C""],[""E"",""C""],[""E"",""C""],[""E"",""C""],[""E"",""F""],[""E"",""F""],[""E"",""F""],[""C"",""F""]]",,,0.501333515,-0.361478227,1,0,0,[],0,[],0.5064,4.7891,0,0,0,0,1,materials/merge_sort/imgs/fruits/apple,8,,,,,,,,,,,,,,,,,,,,,,,,,,,,,,,,,,,,,,
,,,,,,,,,,,,,,,,,,,,,,,,,,,,,,,,,,,,,,,,,,,,,,,,,,,,,,,,,,,,000,001,2021-10-18_20h25.17.400,seq_teaching_exp,2021.2.3,MacIntel,60.0024001,,,,,,,,,,,,,,,,,,,,,,,,,,,,,,,,G,D,"B,C,E,A,G,D,F",0.460088323,-0.367742131,1,0,0,"[""6"",""2"",""4"",""7"",""5"",""3"",""1""]","[""'C'"",""'B'"",""'E'"",""'D'"",""'A'"",""'F'"",""'G'""]","[[""1"",-0.24214378099762993,0.253297355737579],[""1"",-0.06931004899271419,0.13248327876744645],[""2"",-0.19803473654757725,0.2971314848139045],[""2"",-0.18859974721844278,0.15017837352966995],[""2"",-0.13410692536429072,0.12387517864784497],[""2"",-0.1320562469825316,0.1259929785567723],[""2"",-0.13249660877699262,0.13037580854437325],[""3"",-0.16326441389791083,0.22195241692360868],[""3"",-0.014745133646418539,0.15297548958424773],[""3"",0.025079105677229634,0.14225370428535375],[""3"",0.030850871225421347,0.14225370428535375],[""4"",-0.11720293023613061,0.18885884660013605],[""4"",-0.07567390699065134,0.16927277640010532],[""3"",0.018383840496620434,0.17380450816636675],[""4"",-0.052069417546304425,0.20024687520573647],[""3"",0.0229830795459533,0.12047988377260359],[""3"",0.0229830795459533,0.11950387847557496],[""4"",-0.05040226625592521,0.20547943972469715],[""4"",-0.012197258767117275,0.22098674131243418],[""4"",-0.016839702477615872,0.22588939881056883],[""4"",0.0023621977045294945,0.22588939881056883],[""4"",0.01778163266985604,0.2172199206405811],[""4"",0.10044706537482444,0.13634838147109815],[""4"",0.0869560670316889,0.12718976481576985],[""3"",0.010127035419592697,0.1245928132132198],[""3"",-0.001495361328125,0.12792715865574525],[""3"",-0.001495361328125,0.12903839282775192],[""5"",-0.055061597502633425,0.296782032827313],[""5"",0.02162616172533357,0.19529612680499472],[""5"",0.046441324641195575,0.1524886227725597],[""5"",0.045007169916388694,0.12888696220483672],[""6"",-0.026470227187938903,0.2999769489416915],[""6"",0.12798395049705935,0.19347973084181883],[""6"",0.166223418846559,0.11407247821936446],[""6"",0.11886905284410113,0.12350541018368152],[""6"",0.11962942059120435,0.12862379095527562],[""6"",0.12776552693227702,0.1323171036966731]]",18,0.5079,68.4232,"[[""C"",""B""],[""C"",""E""],[""C"",""E""],[""D"",""E""],[""D"",""E""],[""D"",""E""],[""D"",""E""],[""D"",""E""],[""D"",""A""],[""D"",""A""],[""D"",""A""],[""E"",""A""],[""E"",""A""],[""F"",""D""],[""F"",""G""],[""F"",""G""],[""F"",""G""],[""D"",""G""]]",,,0.460088323,-0.367742131,1,0,0,[],0,[],0.5147,4.4644,0,1,1,1,1,materials/merge_sort/imgs/fruits/banana,12,,,,,,,,,,,,,,,,,,,,,,,,,,,,,,,,,,,,,,
,,,,,,,,,,,,,,,,,,,,,,,,,,,,,,,,,,,,,,,,,,,,,,,,,,,,,,,,,,,,000,001,2021-10-18_20h25.17.400,seq_teaching_exp,2021.2.3,MacIntel,60.0024001,,,,,,,,,,,,,,,,,,,,,,,,,,,,,,,,H,C,"C,H,D,F,E,A,B,G",0.509551659,-0.354964696,1,0,0,"[""7"",""6"",""5"",""8"",""4"",""3"",""2"",""1""]","[""'B'"",""'A'"",""'E'"",""'G'"",""'F'"",""'D'"",""'H'"",""'C'""]","[[""1"",-0.2525310730666257,0.2979543021555697],[""1"",-0.13938535197397298,0.19141477949163888],[""1"",-0.09168903479415379,0.12670015485099193],[""3"",-0.16566810179292485,0.29691606157281425],[""3"",-0.2048007236437851,0.1415475138117758],[""3"",-0.21243234698692065,0.1347949853104152],[""3"",-0.21431432145365167,0.12870732853921613],[""2"",-0.19535227571980338,0.30273703242955585],[""2"",-0.18829371420185217,0.15790780742516677],[""2"",-0.16945425312170823,0.1426808646555697],[""2"",-0.16013224741046347,0.14214380671469012],[""2"",-0.1569613338856215,0.13897310749868327],[""2"",-0.15154703547445575,0.12958496608091205],[""2"",-0.1511612795711903,0.12994594788283445],[""4"",-0.10126375348380443,0.30732926357997936],[""4"",-0.045357179105951544,0.1630666068430697],[""4"",-0.012225204639220506,0.13815153314826195],[""4"",-0.0010652006342169943,0.1333641309416696],[""5"",-0.06806791498419944,0.2771221975262245],[""5"",-0.06430859512157655,0.24637346589163447],[""5"",-0.05766853589690133,0.21349999074185833],[""5"",-0.05766853589690133,0.2129837636197551],[""5"",-0.08928714709335499,0.211290638098556],[""3"",-0.11073954721515099,0.18706015254674332],[""3"",-0.09970195641678371,0.21281428819292048],[""3"",-0.20722035611613412,0.1335645525642995],[""3"",-0.21094924412416607,0.12983489304446102],[""5"",-0.12464244713943996,0.20908119973171962],[""5"",-0.14355691631188552,0.21464710021286867],[""5"",-0.15415645985121137,0.22814774245358585],[""5"",-0.24252002158861483,0.16149100828706547],[""5"",-0.26235721888167135,0.13729155465458218],[""5"",-0.26396839270431005,0.13165493225783445],[""6"",-0.0034372565451632727,0.31760970126377064],[""6"",-0.04857052578015274,0.31760972269465415],[""6"",-0.026257375652870434,0.3189099772592609],[""6"",-0.06757500466336025,0.3136432519119777],[""6"",-0.10549832461925035,0.30513763427734375],[""6"",-0.0967064332426264,0.3064126218302866],[""6"",-0.25455286261740695,0.24815904424431617],[""6"",-0.29022979736328125,0.166897720165467],[""6"",-0.3199211292052537,0.1365161852890186],[""6"",-0.3204581871461333,0.13612567172961287],[""7"",-0.0013234856423367275,0.309489003727945],[""6"",-0.3122192554259568,0.15598065665598665],[""6"",-0.2663710519169154,0.15598065665598665],[""6"",-0.32933447334203825,0.14340977186567327],[""6"",-0.3207362314288536,0.1358725301335367],[""6"",-0.313778823681092,0.13186066873957603],[""7"",0.0005222277694873596,0.3164402822430214],[""7"",-0.03284977259260885,0.3164402822430214],[""7"",-0.009453248441889045,0.33142389876119205],[""7"",-0.012729087572419242,0.3324022400245238],[""7"",-0.1264485562785288,0.3324022614554073],[""7"",-0.2643310889769136,0.28062850437807235],[""7"",-0.3272636499297753,0.1501858743389001],[""7"",-0.34915529744008955,0.1378657737474763],[""7"",-0.3509524056081022,0.13638592837901597],[""8"",0.03980778040510885,0.3125485195202774],[""8"",-0.19990899589624297,0.2893514311715458]]",18,0.507,125.9545,"[[""B"",""E""],[""B"",""A""],[""B"",""A""],[""B"",""A""],[""E"",""A""],[""G"",""B""],[""G"",""F""],[""B"",""F""],[""A"",""F""],[""E"",""F""],[""D"",""F""],[""D"",""H""],[""A"",""H""],[""G"",""H""],[""A"",""H""],[""F"",""H""],[""D"",""H""],[""C"",""H""]]",,,0.509990906,-0.354964696,0,0,0,[],0,[],0.5057,60.0039,0,2,2,2,1,materials/merge_sort/imgs/fruits/apple,13,,,,,,,,,,,,,,,,,,,,,,,,,,,,,,,,,,,,,,
,,,,,,,,,,,,,,,,,,,,,,,,,,,,,,,,,,,,,,,,,,,,,,,,,,,,,,,,,,,,000,001,2021-10-18_20h25.17.400,seq_teaching_exp,2021.2.3,MacIntel,60.0024001,,,,,,,,,,,,,,,,,,,,,,,,,,,,,,,,A,B,"D,A,B,F,H,I,J,C,E,G",0.45409059,-0.356159082,1,0,0,"[""8"",""6"",""4"",""3"",""2"",""10"",""9"",""7"",""1"",""5""]","[""'G'"",""'C'"",""'E'"",""'J'"",""'I'"",""'H'"",""'F'"",""'B'"",""'D'"",""'A'""]","[[""1"",-0.24913822131210497,0.3010994128966599],[""1"",-0.24913822131210497,0.2536437216769443],[""1"",-0.18815741378269837,0.15503079703684602],[""1"",-0.1535257918111394,0.13731671451182847],[""2"",-0.23734694920229107,0.24249576182847613],[""2"",-0.23695073502787042,0.16079694769355687],[""2"",-0.2408422405800123,0.14295599433813203],[""1"",-0.14178295349806883,0.14295599433813203],[""1"",-0.005152327291081461,0.14295599433813203],[""3"",-0.16015179237622892,0.3189386303505201],[""3"",-0.16585137870874297,0.3198810534530811],[""3"",-0.1671167437949877,0.2988904460092609],[""3"",-0.170229965381408,0.3139373907882176],[""3"",-0.15258737628379565,0.16578987207305565],[""3"",-0.1429829972513606,0.13906826062148878],[""3"",-0.12855392627501755,0.14287751444270103],[""4"",-0.13360904307847613,0.3090729874171568],[""1"",0.06700417165006145,0.15284879020090852],[""3"",-0.09714722365475773,0.15186159798268523],[""3"",-0.0725689148635007,0.15186159798268523],[""2"",-0.23600031820575842,0.14814428265175122],[""2"",-0.12437764714273174,0.15145012501920208],[""2"",-0.1761798644333743,0.15145012501920208],[""4"",-0.17810658658488412,0.2824409141969145],[""4"",-0.23328588249978055,0.1776509660013606],[""4"",-0.24883501717213835,0.15080106928107445],[""5"",-0.12605354223358498,0.3071525230836333],[""5"",-0.13669946220483672,0.33621224392665905],[""5"",-0.28137807095988415,0.19565025072419243],[""5"",-0.3126765476183945,0.15513135074229722],[""6"",-0.02063091149490871,0.31124989370281775],[""6"",-0.07552654823560394,0.3094943185870567],[""6"",-0.20846917656030547,0.2781875696075097],[""6"",-0.3234629256002019,0.22275731804665555],[""6"",-0.3353566373332163,0.22275731804665555],[""6"",-0.3353566373332163,0.20795423529121312],[""6"",-0.3397039777777168,0.2011327850684691],[""6"",-0.3402410357185964,0.19717467233036343],[""7"",0.036382610878247894,0.3173195056700974],[""7"",-0.23048289438311972,0.3123278242818425],[""7"",-0.34255912866485255,0.276666534080934],[""7"",-0.34831829285353755,0.27025689971580935],[""8"",0.09438255395782127,0.31545996933840637],[""8"",0.04425014538711376,0.3154599907692899],[""8"",0.04696415247542135,0.32929129011175606],[""8"",-0.22826616951588835,0.31984204924508425],[""8"",-0.32199525297357795,0.32983998502238415],[""8"",-0.330531516771638,0.3321437621384524],[""8"",-0.31434931380025455,0.3331191245089756],[""8"",-0.29756464583150455,0.3289172140400061],[""8"",-0.29679759164874475,0.3289172140400061],[""9"",0.11390334568666609,0.3051309907034542],[""9"",0.08110852187938905,0.3044431022043978],[""9"",0.020912427580758428,0.3044431022043978],[""9"",0.043178772658444525,0.30854430895173146],[""9"",-0.18234647257944173,0.32200258233574],[""9"",-0.21164069014988587,0.334445010410266],[""9"",-0.21638060151860955,0.3383553537090173]]",20,0.5014,111.4171,"[[""G"",""C""],[""G"",""E""],[""C"",""E""],[""C"",""J""],[""C"",""J""],[""C"",""J""],[""C"",""J""],[""I"",""J""],[""I"",""H""],[""I"",""H""],[""I"",""H""],[""I"",""H""],[""F"",""H""],[""F"",""H""],[""F"",""B""],[""F"",""H""],[""F"",""B""],[""D"",""B""],[""D"",""A""],[""B"",""A""]]",,,0.45409059,-0.356159082,1,0,0,[],0,[],0.5156,13.3817,0,3,3,3,1,materials/merge_sort/imgs/fruits/melon,21,,,,,,,,,,,,,,,,,,,,,,,,,,,,,,,,,,,,,,
,,,,,,,,,,,,,,,,,,,,,,,,,,,,,,,,,,,,,,,,,,,,,,,,,,,,,,,,,,,,000,001,2021-10-18_20h25.17.400,seq_teaching_exp,2021.2.3,MacIntel,60.0024001,,,,,,,,,,,,,,,,,,,,,,,,,,,,,,,,,,,,,,,,,,,,,,,,,,,,,,,,,,,,,,,,materials/merge_sort/imgs/fruits/melon,,-0.004323124,-0.411445789,1,0,0,20.819,F,D,"D,F,B,A,C,E",0.460863435,-0.368289733,1,0,0,"[""6"",""3"",""5"",""4"",""2"",""1""]","[""'E'"",""'B'"",""'C'"",""'A'"",""'F'"",""'D'""]","[[""2"",-0.21755681412943292,0.13557554094978932],[""1"",-0.2044362271769663,0.2758191140849939],[""1"",-0.09548058670558286,0.1724122722497147],[""1"",-0.08517087443491046,0.15710149186380792],[""2"",-0.21438375751623948,0.14578298504432935],[""2"",-0.26237076320005265,0.16065460376525192],[""2"",-0.26237076320005265,0.15973839063322945],[""3"",-0.16587881023964185,0.21090603946300035],[""3"",-0.18077576026487885,0.16763862867033882],[""3"",-0.17439827222502632,0.1633113475328081],[""2"",-0.28829776035265975,0.1851597475201896],[""2"",-0.29488767130991045,0.1851597475201896],[""4"",-0.19759034574701545,0.23346101567986305],[""4"",-0.2247563051373771,0.18353078606423368],[""5"",-0.06841680976781953,0.3235959256632944],[""2"",-0.3172047647197595,0.22448130404011588],[""2"",-0.19853407613347085,0.2467628221833304],[""2"",-0.2530653021308813,0.20842485749319697],[""2"",-0.2719611692964361,0.18196560291761762],[""5"",-0.17121630036429072,0.311388294348556],[""5"",-0.27764438243394485,0.22604927320158882],[""5"",-0.3141492779335279,0.19506874513090328]]","[[""E"",""B""],[""E"",""C""],[""E"",""C""],[""E"",""C""],[""B"",""C""],[""B"",""A""],[""C"",""A""],[""E"",""F""],[""E"",""F""],[""C"",""F""],[""A"",""F""],[""B"",""F""],[""D"",""F""]]",13,0.5025,70.8675,0,0,0,0,1,,,,,,,,,,,,
,,,,,,,,,,,,,,,,,,,,,,,,,,,,,,,,,,,,,,,,,,,,,,,,,,,,,,,,,,,,000,001,2021-10-18_20h25.17.400,seq_teaching_exp,2021.2.3,MacIntel,60.0024001,,,,,,,,,,,,,,,,,,,,,,,,,,,,,,,,,,,,,,,,,,,,,,,,,,,,,,,,,,,,,,,,materials/merge_sort/imgs/fruits/banana,,,,,,,,A,F,"C,E,B,F,A,D",0.447305744,-0.356772862,1,0,0,"[""4"",""6"",""5"",""2"",""3"",""1""]","[""'A'"",""'D'"",""'C'"",""'B'"",""'F'"",""'E'""]","[[""6"",-0.006589568063114466,0.2807699053475026],[""6"",-0.04536866605951545,0.15873285357871753],[""5"",-0.04486495457338483,0.29896742574284585],[""5"",0.034842759035946275,0.1868380428699965],[""5"",0.05037954951939958,0.16844391554928898],[""5"",0.05188605490695225,0.16692309433154845],[""4"",-0.04427423370018434,0.24574682685766328],[""4"",-0.0032398352462254215,0.18990745973051265],[""4"",0.009571375471822331,0.16917809475673717],[""4"",0.008764116951588834,0.1683951388584094],[""2"",-0.17007034816099018,0.3025075290979964],[""2"",-0.14599635092060217,0.19215178757571102],[""2"",-0.21994301442349895,0.246425071459138],[""2"",-0.21994301442349895,0.2493768756309252],[""3"",-0.13782612661297403,0.22988488700952422],[""3"",-0.1338825011521243,0.15404617652464447],[""3"",-0.10850919230600421,0.15115004978822857],[""3"",-0.10673762975114115,0.15115004978822857],[""2"",-0.19771241605951545,0.24482126986042838],[""2"",-0.17241857292946805,0.23491055777903352],[""2"",-0.14788646912306883,0.2384151072984331],[""2"",-0.11828047505925211,0.22960418529724808],[""2"",-0.094448989696717,0.2342420427986745],[""2"",0.03749573096800386,0.24466619598731565],[""2"",0.12026480342564957,0.17519781562719453],[""2"",0.09138265888342696,0.16460607292946805],[""2"",0.09031308634897296,0.16555181781897385],[""1"",-0.2586206157555741,0.3007968945449658],[""1"",-0.2164034897022033,0.3007968945449658]]","[[""E"",""F""],[""E"",""B""],[""F"",""B""],[""E"",""C""],[""D"",""C""],[""D"",""E""],[""D"",""B""],[""D"",""F""],[""D"",""A""],[""D"",""A""],[""F"",""A""]]",11,0.5058,72.9204,0,1,1,1,1,,,,,,,,,,,,
,,,,,,,,,,,,,,,,,,,,,,,,,,,,,,,,,,,,,,,,,,,,,,,,,,,,,,,,,,,,000,001,2021-10-18_20h25.17.400,seq_teaching_exp,2021.2.3,MacIntel,60.0024001,,,,,,,,,,,,,,,,,,,,,,,,,,,,,,,,,,,,,,,,,,,,,,,,,,,,,,,,,,,,,,,,materials/merge_sort/imgs/fruits/apple,,,,,,,,C,E,"G,C,E,A,F,D,B",0.445200717,-0.359870311,1,0,0,"[""7"",""5"",""3"",""6"",""1"",""4"",""2""]","[""'B'"",""'F'"",""'E'"",""'D'"",""'G'"",""'A'"",""'C'""]","[[""1"",-0.2500300889604547,0.3102362557743373],[""1"",-0.12838796551307935,0.08566177025269926],[""1"",-0.07996385552909936,0.0815086793363764],[""3"",-0.15152663327334973,0.2152217479234331],[""3"",-0.16897943046655547,0.11965329459543979],[""3"",-0.15324221836047225,0.10485968429051089],[""3"",-0.150945770606566,0.0960146871845374],[""3"",-0.150945770606566,0.0956588059328915],[""3"",-0.01962717463461201,0.16587876737787483],[""3"",-0.11964022175649579,0.13339181964317065],[""3"",-0.15825815950886588,0.09464482511027475],[""3"",-0.15514150898108323,0.07916932695367362],[""2"",-0.18946135445926968,0.2793269210986877],[""2"",-0.14850033535046525,0.18935261415631582],[""2"",-0.12826880980073735,0.11117609431234639],[""2"",-0.12152322490563554,0.09006984582108059],[""2"",-0.1155161482564519,0.0811737146270409],[""1"",-0.059528393691845156,0.0823550277881408],[""1"",0.04476765836222788,0.1032863145463922],[""4"",-0.10958725147033005,0.28523768735735605],[""4"",-0.04314259732707163,0.09985998775182145],[""4"",-0.03788028674179249,0.08821808890010534],[""5"",-0.05094892523261938,0.324165001344145],[""5"",-0.25872605570246665,0.18301687347755002],[""5"",-0.21918221805872543,0.10028106175111921],[""5"",-0.2027473021089361,0.09168251980556531],[""5"",-0.2027473021089361,0.08514202846569961],[""6"",-0.010102432765317767,0.3029265028707097],[""6"",-0.014363835366924158,0.31105425116721164],[""6"",-0.06549209423279495,0.16680218128675825],[""6"",-0.09833500894267908,0.10902970560481039],[""6"",-0.09263507971602879,0.12007672599192416],[""6"",-0.11137595873200491,0.08780713027782655],[""6"",-0.07194279017073385,0.08502060107970505],[""6"",-0.10026636016502809,0.16170197390438465],[""6"",-0.13086528992385008,0.15307321441307498],[""2"",-0.11326924870523174,0.10311593902244996],[""2"",-0.07421377803502457,0.1025788810815704],[""2"",-0.07225842422313905,0.08903323398547226],[""2"",-0.07260414723599895,0.08903323398547226],[""6"",-0.12790825661648525,0.14728053232257285],[""6"",-0.11471617623661341,0.10637463344616836],[""6"",-0.11364694659629565,0.0918006468354986],[""6"",-0.11326822002282304,0.0918006468354986],[""7"",0.003372106659278441,0.3063291914007637],[""7"",-0.01009360324130969,0.3194666015967894],[""7"",-0.0764026427536868,0.269644619373793],[""7"",-0.1356700940078564,0.1689617285567723],[""7"",-0.1580553376272823,0.15063862318403265],[""7"",-0.15020614795470505,0.157056529870194],[""7"",-0.16827195413996665,0.11718017063783796],[""7"",-0.17133597041783707,0.10075867042112886],[""7"",-0.17280981513891328,0.09714825233716644]]","[[""B"",""E""],[""F"",""E""],[""F"",""B""],[""D"",""B""],[""D"",""E""],[""D"",""F""],[""D"",""B""],[""G"",""B""],[""G"",""B""],[""G"",""B""],[""G"",""D""],[""G"",""E""],[""G"",""A""],[""E"",""A""],[""D"",""A""],[""F"",""A""],[""B"",""C""],[""B"",""C""],[""G"",""C""],[""E"",""C""]]",20,0.505,113.6865,0,2,2,2,1,,,,,,,,,,,,
,,,,,,,,,,,,,,,,,,,,,,,,,,,,,,,,,,,,,,,,,,,,,,,,,,,,,,,,,,,,000,001,2021-10-18_20h25.17.400,seq_teaching_exp,2021.2.3,MacIntel,60.0024001,,,,,,,,,,,,,,,,,,,,,,,,,,,,,,,,,,,,,,,,,,,,,,,,,,,,,,,,,,,,,,,,materials/merge_sort/imgs/fruits/banana,,,,,,,,A,B,"F,G,C,E,B,A,D",0.442600722,-0.308013402,1,0,0,"[""4"",""7"",""2"",""6"",""3"",""5"",""1""]","[""'E'"",""'D'"",""'G'"",""'A'"",""'C'"",""'B'"",""'F'""]","[[""1"",-0.2454127622454354,0.29700180653775676],[""1"",-0.12817331378379565,0.1267480743065309],[""1"",-0.09722617502962605,0.10714361640844453],[""1"",-0.07696756084313554,0.12426183464821805],[""1"",-0.008366359753555127,0.10597001836540994],[""7"",0.05284607276487886,0.312526102816121],[""7"",-0.07279899682891502,0.14022154218695138],[""7"",-0.11654843105359024,0.08974118179149843],[""7"",-0.13955859923630617,0.10489234495698736],[""2"",-0.20012261894311797,0.2971771325957909],[""2"",-0.17790042148547225,0.2911074349049772],[""2"",-0.2021714114071278,0.2920381353142556],[""2"",-0.06871958529011588,0.18564952893203565],[""2"",0.08374332042222613,0.10009534171458041],[""2"",0.09150250038404144,0.10103800055686007],[""3"",-0.14180086971668715,0.3093594754679819],[""3"",-0.10902970560481039,0.06186748890394575],[""3"",-0.07281099812368329,0.10019130921095945],[""3"",-0.07207308994250351,0.11413989977890186],[""4"",-0.054088635391063906,0.23422639825370875],[""4"",0.026792804846602878,0.14920708302701458],[""4"",0.037956494963570925,0.12168387080846207],[""4"",0.04049168275983146,0.10499152708589361],[""5"",-0.05235804868548104,0.30045826515454926],[""5"",-0.04685674088724544,0.1694943288738808],[""5"",-0.03741043605161517,0.11473614982004916],[""5"",-0.03876915406645014,0.11249079329244206],[""6"",0.006211012936709972,0.09060390343826809],[""6"",0.02385797393455934,0.10870297035474456]]","[[""E"",""F""],[""E"",""D""],[""G"",""D""],[""G"",""E""],[""G"",""F""],[""A"",""F""],[""A"",""F""],[""A"",""G""],[""A"",""E""],[""A"",""D""],[""C"",""D""],[""C"",""D""],[""C"",""D""],[""C"",""F""],[""C"",""G""],[""C"",""E""],[""B"",""D""],[""B"",""F""],[""B"",""G""],[""B"",""C""],[""B"",""E""],[""B"",""A""]]",22,0.5047,113.6354,0,3,3,3,1,,,,,,,,,,,,
,,,,,,,,,,,,,,,,,,,,,,,,,,,,,,,,,,,,,,,,,,,,,,,,,,,,,,,,,,,,000,001,2021-10-18_20h25.17.400,seq_teaching_exp,2021.2.3,MacIntel,60.0024001,,,,,,,,,,,,,,,,,,,,,,,,,,,,,,,,,,,,,,,,,,,,,,,,,,,,,,,,,,,,,,,,materials/merge_sort/imgs/fruits/melon,,,,,,,,F,D,"G,F,D,B,E,C,H,A",0.539040383,-0.317294603,1,0,0,"[""8"",""7"",""6"",""5"",""4"",""3"",""2"",""1""]","[""'A'"",""'H'"",""'C'"",""'E'"",""'B'"",""'D'"",""'F'"",""'G'""]","[[""1"",-0.24631834565923455,0.3012567584434252],[""1"",-0.0020194750153616574,0.0942657556426659],[""1"",0.02155972598643785,0.09554076462649227],[""1"",0.06402322147669418,0.12775841187895015],[""8"",0.0797100281447507,0.2691983426554819],[""8"",-0.05556376596515098,0.1415804745106215],[""8"",-0.1017865813180302,0.12064867341116572],[""2"",-0.21342373965831285,0.2904100310936403],[""2"",-0.24053595039281953,0.2116296746757593],[""2"",-0.11867060286275456,0.18966014733475245],[""2"",-0.03230002756868856,0.14163808072550912],[""2"",-0.01599206817284059,0.12814013877611483],[""2"",-0.014738704381364116,0.1269706983244821],[""3"",-0.152375724878204,0.2428354841939519],[""8"",-0.08954466058966819,0.10725509986448824],[""8"",-0.05290839377413975,0.1057429795854547],[""8"",-0.1564845395891854,0.1319316906875439],[""8"",-0.16108480732092698,0.13050456529252985],[""8"",-0.15799927443600773,0.12285909759864379],[""3"",-0.14760049541344802,0.2397910128818469],[""3"",-0.10787569538930829,0.15631943606258777],[""3"",-0.08476908823077599,0.12971295131726213],[""3"",-0.07915128214975421,0.12409514523624035],[""4"",-0.10453882110252809,0.3174530415052778],[""4"",-0.10359911972217345,0.14823763558034148],[""4"",-0.11493622854854284,0.12157555912317855],[""4"",-0.11493622854854284,0.12191746743877283],[""8"",-0.18388983908663975,0.13477321153276423],[""8"",-0.26365695910507375,0.13477321153276423],[""5"",-0.09133748258097787,0.279727035693908],[""5"",-0.17204567555631145,0.1533453009101782],[""5"",-0.1819075680850597,0.133713497204727],[""6"",-0.1308907498134656,0.23136533244272298],[""8"",-0.2345629059866573,0.12197443072715503],[""8"",-0.2345629059866573,0.1148343032665467],[""8"",-0.29344734449065135,0.1270727093300123],[""8"",-0.23016117395979635,0.15085828974005883],[""8"",-0.2448782760105776,0.1518665270858936],[""8"",-0.25033663631824965,0.14713060186150367],[""6"",-0.18570546353800912,0.18538181433516943],[""6"",-0.21617263622498245,0.14836172039589185],[""6"",-0.211972183056092,0.13632716489641855],[""7"",0.043132824844188906,0.3010872615857071],[""5"",-0.22607113270277387,0.1505568857943074],[""7"",-0.014034399825535464,0.27920146470659235],[""5"",-0.24371337890625,0.13287777847118593],[""5"",-0.13148138496313203,0.1356696653901861],[""5"",-0.16252290532830055,0.13401348671216642],[""5"",-0.16327958696343925,0.13401348671216642],[""8"",-0.3042615826210279,0.12873313132296788],[""7"",-0.02990551209181882,0.26056165373727175],[""7"",-0.23188464561205233,0.14200883501031425],[""7"",-0.26159573672862535,0.12064610170514396]]","[[""A"",""G""],[""A"",""H""],[""G"",""H""],[""G"",""C""],[""H"",""C""],[""G"",""E""],[""C"",""E""],[""G"",""B""],[""E"",""B""],[""G"",""D""],[""B"",""D""],[""G"",""F""],[""D"",""F""]]",13,0.5068,113.5883,0,4,4,4,1,,,,,,,,,,,,
,,,,,,,,,,,,,,,,,,,,,,,,,,,,,,,,,,,,,,,,,,,,,,,,,,,,,,,,,,,,000,001,2021-10-18_20h25.17.400,seq_teaching_exp,2021.2.3,MacIntel,60.0024001,,,,,,,,,,,,,,,,,,,,,,,,,,,,,,,,,,,,,,,,,,,,,,,,,,,,,,,,,,,,,,,,materials/merge_sort/imgs/fruits/apple,,,,,,,,I,H,"F,D,A,B,E,H,I,C,G,J",0.482185107,-0.340568971,1,0,0,"[""5"",""7"",""6"",""1"",""4"",""9"",""8"",""10"",""2"",""3""]","[""'E'"",""'I'"",""'H'"",""'F'"",""'B'"",""'G'"",""'C'"",""'J'"",""'D'"",""'A'""]","[[""1"",-0.24417851480205408,0.3206703528929292],[""1"",-0.2425008195169856,0.16832981752545645],[""1"",-0.241574233837342,0.1677927595845769],[""1"",-0.22839321179336378,0.13470651862326632],[""3"",-0.14527353008141677,0.27985090620062325],[""3"",-0.13453785757000528,0.1702274793989203],[""3"",-0.13453785757000528,0.1393082436550869],[""4"",-0.08222275637508777,0.30988313910666476],[""4"",-0.2084340299113413,0.25157611289720855],[""4"",-0.27265664432825665,0.14343788918484462],[""4"",-0.281684532594145,0.12863437781173193],[""1"",-0.24275781867209445,0.1216824563701501],[""1"",-0.21249106760775105,0.12607977363500703],[""1"",-0.18936791580714538,0.13578612081120522],[""5"",-0.05061820383821981,0.29958315645710804],[""5"",-0.1798868929402212,0.22117893347579443],[""5"",-0.21015398689870085,0.14872793133339185],[""5"",-0.23562030577927492,0.1328143859177493],[""5"",-0.235998260840941,0.13169127903627545],[""6"",-0.0025470176439606742,0.2962957660803634],[""6"",-0.032998502924201194,0.24250673444083568],[""6"",-0.0653329056300474,0.19767825523119295],[""6"",-0.06934288110625877,0.15822296999813465],[""6"",-0.07419620471054249,0.14324278242132638],[""6"",-0.07065247953607795,0.14186477661132812],[""6"",-0.0026748314332426266,0.14186477661132812],[""3"",-0.1370745026663448,0.14442388127359113],[""3"",-0.11101231950052669,0.14442388127359113],[""3"",-0.10449253039413624,0.14442388127359113],[""3"",-0.11640527275171172,0.14442388127359113],[""7"",0.030253206745962078,0.2987777624237403],[""7"",-0.06161224708128511,0.15719115868043365],[""7"",-0.06161224708128511,0.13880650381023965],[""8"",0.07829250378555126,0.23435296905174685],[""8"",0.08216746469561974,0.14061055558451105],[""8"",0.07093553864554072,0.131365100989181],[""8"",0.049449192004257375,0.1393712933143873],[""8"",0.04900660139791081,0.14064304480391943],[""4"",-0.31691536206877635,0.13372266962287133],[""4"",-0.3366927243350597,0.13318689753500262],[""9"",0.13995078440462605,0.3194903684466073],[""9"",0.08142175567284059,0.31638979108146065],[""1"",-0.27878279096624825,0.14650983488961553],[""1"",-0.2364077621631408,0.14650983488961553],[""1"",-0.18559102262004037,0.14650983488961553],[""1"",-0.18097583899337255,0.14650983488961553],[""9"",0.09135497018192591,0.3337729379032435],[""9"",0.059553082069654144,0.3337729379032435],[""5"",-0.26091766357421875,0.1658097170711903],[""5"",-0.2643088008580583,0.15649435493383515],[""5"",-0.22606307469057232,0.13743929916553282],[""9"",0.05063689156864466,0.3545005455445708],[""2"",-0.2729214443249649,0.2608282967899623],[""2"",-0.21470950694566363,0.26457582966665205],[""2"",-0.18044152420558288,0.276529933629411],[""9"",-0.0998106538579705,0.3602211555738128],[""9"",-0.10128372706724016,0.3738696923416652],[""9"",-0.27077981327356915,0.2988044224428327],[""9"",-0.2664972369590502,0.18487450246060833],[""9"",-0.27772067637925735,0.13964127958490608],[""9"",-0.2796774874912219,0.13618117771791607],[""10"",0.1144018280372191,0.2952780562840151],[""10"",0.11931395798586727,0.3079963855529099],[""10"",0.02892406335037746,0.24881311480918628],[""10"",-0.19279994321673105,0.17812124530920823],[""10"",-0.250435989894224,0.14012694626711727],[""10"",-0.26123784097392905,0.13590390494700227],[""10"",-0.25526316782061975,0.13590390494700227],[""10"",-0.25314511074109025,0.13590390494700227],[""2"",-0.19434656721822333,0.2690954315528441],[""2"",-0.12418699800298455,0.21634206879005002],[""2"",-0.08406581235735604,0.16843607184592257],[""2"",-0.08755218848753511,0.15732004401389132],[""2"",-0.0923161024457953,0.15309323085827775]]","[[""E"",""H""],[""E"",""F""],[""H"",""B""],[""H"",""B""],[""E"",""B""],[""F"",""B""],[""G"",""H""],[""G"",""C""],[""H"",""C""],[""G"",""J""],[""D"",""J""],[""D"",""J""],[""D"",""J""],[""D"",""J""],[""D"",""G""],[""D"",""G""],[""D"",""C""],[""D"",""H""],[""D"",""E""],[""D"",""F""],[""D"",""B""],[""A"",""F""],[""A"",""D""],[""A"",""E""],[""A"",""B""],[""E"",""I""],[""C"",""I""],[""H"",""I""]]",28,0.5066,184.2529,0,5,5,5,1,,,,,,,,,,,,
,,,,,,,,,,,,,,,,,,,,,,,,,,,,,,,,,,,,,,,,,,,,,,,,,,,,,,,,,,,,000,001,2021-10-18_20h25.17.400,seq_teaching_exp,2021.2.3,MacIntel,60.0024001,,,,,,,,,,,,,,,,,,,,,,,,,,,,,,,,,,,,,,,,,,,,,,,,,,,,,,,,,,,,,,,,,,,,,,,,,,,,,,,,,,,,,,,,,,,,nope ,0.113648061,-0.374093902,1,0,0,4.1587,0.092988689,-0.300656522,1,0,0
