intro_mouse.x,intro_mouse.y,intro_mouse.leftButton,intro_mouse.midButton,intro_mouse.rightButton,intro.tEnd,background_mouse.x,background_mouse.y,background_mouse.leftButton,background_mouse.midButton,background_mouse.rightButton,demographic_age,demographic_education,demographic_gender,background.tEnd,merge_intro_mouse.x,merge_intro_mouse.y,merge_intro_mouse.leftButton,merge_intro_mouse.midButton,merge_intro_mouse.rightButton,merge_intro.tEnd,merge_train_scale_right.text,merge_train_scale_left.text,merge_train_mouse.x,merge_train_mouse.y,merge_train_mouse.leftButton,merge_train_mouse.midButton,merge_train_mouse.rightButton,merge_train_mouse.clicked_name,merge_train.tStart,mc_order,merge_train_compareN,merge_train_labels,merge_train_input,merge_train_mouse_clicked,merge_train.tEnd,merge_expl_mouse.x,merge_expl_mouse.y,merge_expl_mouse.leftButton,merge_expl_mouse.midButton,merge_expl_mouse.rightButton,merge_expl.tStart,merge_expl.tEnd,TRAIN_1.thisRepN,TRAIN_1.thisTrialN,TRAIN_1.thisN,TRAIN_1.thisIndex,TRAIN_1.ran,img_path,input,encryption,mc_path_1,mc_path_2,participant,session,date,expName,psychopyVersion,OS,frameRate,merge_test_intro_mouse.x,merge_test_intro_mouse.y,merge_test_intro_mouse.leftButton,merge_test_intro_mouse.midButton,merge_test_intro_mouse.rightButton,merge_test_intro.tEnd,merge_test_scale_right.text,merge_test_scale_left.text,merge_test_res.text,merge_test_mouse.x,merge_test_mouse.y,merge_test_mouse.leftButton,merge_test_mouse.midButton,merge_test_mouse.rightButton,merge_test_input,merge_test_labels,merge_test_ans,merge_test_compareN,merge_test.tStart,merge_test.tEnd,TEST_1.thisRepN,TEST_1.thisTrialN,TEST_1.thisN,TEST_1.thisIndex,TEST_1.ran,sort_intro_mouse.x,sort_intro_mouse.y,sort_intro_mouse.leftButton,sort_intro_mouse.midButton,sort_intro_mouse.rightButton,sort_intro.tEnd,sort_train_scale_right.text,sort_train_scale_left.text,sort_train_res.text,sort_train_mouse.x,sort_train_mouse.y,sort_train_mouse.leftButton,sort_train_mouse.midButton,sort_train_mouse.rightButton,sort_train_input,sort_train_labels,sort_train_trace,sort_train_ans,sort_train_compareN,sort_train.tStart,sort_train.tEnd,sort_expl_scale_right.text,sort_expl_scale_left.text,sort_expl_mouse.x,sort_expl_mouse.y,sort_expl_mouse.leftButton,sort_expl_mouse.midButton,sort_expl_mouse.rightButton,sort_expl_trace,sort_expl_compareN,sort_expl.tStart,sort_expl.tEnd,TRAIN_2.thisRepN,TRAIN_2.thisTrialN,TRAIN_2.thisN,TRAIN_2.thisIndex,TRAIN_2.ran,img_path_base,ms_compare,sort_test_intro_mouse.x,sort_test_intro_mouse.y,sort_test_intro_mouse.leftButton,sort_test_intro_mouse.midButton,sort_test_intro_mouse.rightButton,sort_test_intro.tEnd,sort_test_scale_right.text,sort_test_scale_left.text,sort_test_res.text,sort_test_mouse.x,sort_test_mouse.y,sort_test_mouse.leftButton,sort_test_mouse.midButton,sort_test_mouse.rightButton,sort_test_input,sort_test_labels,sort_test_trace,sort_test_ans,sort_test_compareN,sort_test.tStart,sort_test.tEnd,TEST_2.thisRepN,TEST_2.thisTrialN,TEST_2.thisN,TEST_2.thisIndex,TEST_2.ran,debrief_mouse.x,debrief_mouse.y,debrief_mouse.leftButton,debrief_mouse.midButton,debrief_mouse.rightButton
0.083333348,-0.362963032,1,0,0,1.2038,0.064814829,-0.394444458,1,0,0,_18_24,graduate,male,6.9363,-0.021296227,-0.398148162,1,0,0,0.9895,A,B,0.537037058,-0.422222236,1,0,0,merge_train_btn_2,0.5093,"[0,1]",1,"[""'A'"",""'B'""]","[""4"",""2""]","[""merge_train_btn_2""]",5.973,0.32685187,-0.406481495,1,0,0,0.5153,2.3807,0,0,0,0,1,materials/merge_sort/imgs/merge_train/merge_train_ex_1.png,,,materials/merge_sort/imgs/merge_train/merge_train_ex_1_1_correct.png,materials/merge_sort/imgs/merge_train/merge_train_ex_1_1_wrong.png,cs01,001,2021-10-01_20h55.53.802,seq_teaching_exp,2021.2.3,Win32,59.85873339,,,,,,,,,,,,,,,,,,,,,,,,,,,,,,,,,,,,,,,,,,,,,,,,,,,,,,,,,,,,,,,,,,,,,,,,,,,,,,,,,,,,,,,,,,,,,,,
,,,,,,,,,,,,,,,,,,,,,D,B,0.587962985,-0.408333347,1,0,0,merge_train_btn_2,0.5048,"[1,0]",1,"[""'A'"",""'B'"",""'D'"",""'C'""]","[""1"",""4"",""2"",""3""]","[""merge_train_btn_2""]",4.0035,0.36111113,-0.424074088,1,0,0,0.5095,1.592,0,1,1,1,1,materials/merge_sort/imgs/merge_train/merge_train_ex_2.png,,,materials/merge_sort/imgs/merge_train/merge_train_ex_2_1_correct.png,materials/merge_sort/imgs/merge_train/merge_train_ex_2_1_wrong.png,cs01,001,2021-10-01_20h55.53.802,seq_teaching_exp,2021.2.3,Win32,59.85873339,,,,,,,,,,,,,,,,,,,,,,,,,,,,,,,,,,,,,,,,,,,,,,,,,,,,,,,,,,,,,,,,,,,,,,,,,,,,,,,,,,,,,,,,,,,,,,,
,,,,,,,,,,,,,,,,,,,,,C,B,0.424074094,-0.382407421,1,0,0,merge_train_btn_2,0.5153,"[1,0]",1,"[""'A'"",""'B'"",""'D'"",""'C'""]","[""1"",""4"",""2"",""3""]","[""merge_train_btn_2""]",3.88,0.293518536,-0.386111181,1,0,0,0.5159,1.5485,0,2,2,2,1,materials/merge_sort/imgs/merge_train/merge_train_ex_2.png,,,materials/merge_sort/imgs/merge_train/merge_train_ex_2_2_correct.png,materials/merge_sort/imgs/merge_train/merge_train_ex_2_2_wrong.png,cs01,001,2021-10-01_20h55.53.802,seq_teaching_exp,2021.2.3,Win32,59.85873339,,,,,,,,,,,,,,,,,,,,,,,,,,,,,,,,,,,,,,,,,,,,,,,,,,,,,,,,,,,,,,,,,,,,,,,,,,,,,,,,,,,,,,,,,,,,,,,
,,,,,,,,,,,,,,,,,,,,,E,B,0.481481502,-0.393518532,1,0,0,merge_train_btn_2,0.5159,"[1,0]",1,"[""'C'"",""'D'"",""'B'"",""'A'"",""'G'"",""'E'"",""'F'""]","[""1"",""2"",""5"",""7"",""3"",""4"",""6""]","[""merge_train_btn_2""]",4.3146,0.358333352,-0.408333347,1,0,0,0.5135,1.8466,0,3,3,3,1,materials/merge_sort/imgs/merge_train/merge_train_ex_5.png,,,materials/merge_sort/imgs/merge_train/merge_train_ex_5_1_correct.png,materials/merge_sort/imgs/merge_train/merge_train_ex_5_1_wrong.png,cs01,001,2021-10-01_20h55.53.802,seq_teaching_exp,2021.2.3,Win32,59.85873339,,,,,,,,,,,,,,,,,,,,,,,,,,,,,,,,,,,,,,,,,,,,,,,,,,,,,,,,,,,,,,,,,,,,,,,,,,,,,,,,,,,,,,,,,,,,,,,
,,,,,,,,,,,,,,,,,,,,,B,F,0.463888909,-0.400925939,1,0,0,merge_train_btn_2,0.5142,"[0,1]",1,"[""'C'"",""'D'"",""'B'"",""'A'"",""'G'"",""'E'"",""'F'""]","[""1"",""2"",""5"",""7"",""3"",""4"",""6""]","[""merge_train_btn_2""]",3.5627,0.287037055,-0.410185199,1,0,0,0.5122,1.5952,0,4,4,4,1,materials/merge_sort/imgs/merge_train/merge_train_ex_5.png,,,materials/merge_sort/imgs/merge_train/merge_train_ex_5_2_correct.png,materials/merge_sort/imgs/merge_train/merge_train_ex_5_2_wrong.png,cs01,001,2021-10-01_20h55.53.802,seq_teaching_exp,2021.2.3,Win32,59.85873339,,,,,,,,,,,,,,,,,,,,,,,,,,,,,,,,,,,,,,,,,,,,,,,,,,,,,,,,,,,,,,,,,,,,,,,,,,,,,,,,,,,,,,,,,,,,,,,
,,,,,,,,,,,,,,,,,,,,,F,A,0.433333353,-0.403703717,1,0,0,merge_train_btn_2,0.5048,"[0,1]",1,"[""'C'"",""'D'"",""'B'"",""'A'"",""'G'"",""'E'"",""'F'""]","[""1"",""2"",""5"",""7"",""3"",""4"",""6""]","[""merge_train_btn_2""]",3.5306,0.434259392,-0.403703717,1,0,0,0.5155,1.2821,0,5,5,5,1,materials/merge_sort/imgs/merge_train/merge_train_ex_5.png,,,materials/merge_sort/imgs/merge_train/merge_train_ex_5_3_correct.png,materials/merge_sort/imgs/merge_train/merge_train_ex_5_3_wrong.png,cs01,001,2021-10-01_20h55.53.802,seq_teaching_exp,2021.2.3,Win32,59.85873339,,,,,,,,,,,,,,,,,,,,,,,,,,,,,,,,,,,,,,,,,,,,,,,,,,,,,,,,,,,,,,,,,,,,,,,,,,,,,,,,,,,,,,,,,,,,,,,
,,,,,,,,,,,,,,,,,,,,,,,,,,,,,,,,,,,,,,,,,,,,,,,,materials/merge_sort/imgs/merge_test/merge_test_ex_1.png,,,,,cs01,001,2021-10-01_20h55.53.802,seq_teaching_exp,2021.2.3,Win32,59.85873339,0.0851852,-0.377777791,1,0,0,1.0145,E,B,"C,A,D,E,B",0.429629762,-0.345370383,1,0,0,"[""1"",""2"",""5"",""3"",""4""]","[""'C'"",""'A'"",""'B'"",""'D'"",""'E'""]","C,A,D,E,B",4,0.5125,26.2668,0,0,0,0,1,,,,,,,,,,,,,,,,,,,,,,,,,,,,,,,,,,,,,,,,,,,,,,,,,,,,,,,,,,,,,,,,,,,,,,
,,,,,,,,,,,,,,,,,,,,,,,,,,,,,,,,,,,,,,,,,,,,,,,,materials/merge_sort/imgs/merge_test/merge_test_ex_2.png,,,,,cs01,001,2021-10-01_20h55.53.802,seq_teaching_exp,2021.2.3,Win32,59.85873339,,,,,,,E,A,"D,E,B,A,C",0.433333353,-0.356481494,1,0,0,"[""3"",""4"",""5"",""1"",""2""]","[""'B'"",""'A'"",""'C'"",""'D'"",""'E'""]","D,E,B,A,C",2,0.5089,31.8274,0,1,1,1,1,,,,,,,,,,,,,,,,,,,,,,,,,,,,,,,,,,,,,,,,,,,,,,,,,,,,,,,,,,,,,,,,,,,,,,
,,,,,,,,,,,,,,,,,,,,,,,,,,,,,,,,,,,,,,,,,,,,,,,,materials/merge_sort/imgs/merge_test/merge_test_ex_3.png,,,,,cs01,001,2021-10-01_20h55.53.802,seq_teaching_exp,2021.2.3,Win32,59.85873339,,,,,,,E,C,"F,D,A,E,C,B",0.512037058,-0.331481494,1,0,0,"[""3"",""5"",""6"",""1"",""2"",""4""]","[""'A'"",""'C'"",""'B'"",""'F'"",""'D'"",""'E'""]","F,D,A,E,C,B",4,0.5004,22.6729,0,2,2,2,1,,,,,,,,,,,,,,,,,,,,,,,,,,,,,,,,,,,,,,,,,,,,,,,,,,,,,,,,,,,,,,,,,,,,,,
,,,,,,,,,,,,,,,,,,,,,,,,,,,,,,,,,,,,,,,,,,,,,,,,materials/merge_sort/imgs/merge_test/merge_test_ex_4.png,,,,,cs01,001,2021-10-01_20h55.53.802,seq_teaching_exp,2021.2.3,Win32,59.85873339,,,,,,,F,A,"E,D,B,G,C,F,A",0.522222356,-0.336111124,1,0,0,"[""2"",""3"",""5"",""7"",""1"",""4"",""6""]","[""'D'"",""'B'"",""'C'"",""'A'"",""'E'"",""'G'"",""'F'""]","E,D,B,G,C,F,A",6,0.5024,33.8533,0,3,3,3,1,,,,,,,,,,,,,,,,,,,,,,,,,,,,,,,,,,,,,,,,,,,,,,,,,,,,,,,,,,,,,,,,,,,,,,
,,,,,,,,,,,,,,,,,,,,,,,,,,,,,,,,,,,,,,,,,,,,,,,,materials/merge_sort/imgs/merge_test/merge_test_ex_5.png,,,,,cs01,001,2021-10-01_20h55.53.802,seq_teaching_exp,2021.2.3,Win32,59.85873339,,,,,,,F,D,"C,E,G,A,B,D,F",0.485185319,-0.358333403,1,0,0,"[""1"",""4"",""5"",""6"",""2"",""3"",""7""]","[""'C'"",""'A'"",""'B'"",""'D'"",""'E'"",""'G'"",""'F'""]","C,E,G,A,B,D,F",6,0.5145,41.755,0,4,4,4,1,,,,,,,,,,,,,,,,,,,,,,,,,,,,,,,,,,,,,,,,,,,,,,,,,,,,,,,,,,,,,,,,,,,,,,
,,,,,,,,,,,,,,,,,,,,,,,,,,,,,,,,,,,,,,,,,,,,,,,,,,,,,cs01,001,2021-10-01_20h55.53.802,seq_teaching_exp,2021.2.3,Win32,59.85873339,,,,,,,,,,,,,,,,,,,,,,,,,,0.077777792,-0.390740811,1,0,0,7.2585,B,F,"G,B,F,C,E,A,D",0.435185205,-0.325000012,1,0,0,"[""6"",""7"",""2"",""4"",""5"",""1"",""3""]","[""'A'"",""'D'"",""'B'"",""'C'"",""'E'"",""'G'"",""'F'""]","[[""2"",-0.12129628485827534,0.1759259210968459],[""2"",-0.07592591381183376,0.12407404021532405],[""2"",-0.014814801790096142,0.1444444391462538],[""2"",0.041666680533025,0.11666666095455487],[""2"",0.05740747802235546,0.1083333274970452],[""1"",-0.10648146982270258,0.19814811539318786],[""1"",-0.021296226854124817,0.09537036434091904],[""1"",-0.04351850592151836,0.12222221659289466],[""1"",-0.046296283740688254,0.11851851283400147],[""3"",-0.14907406304997425,0.31018518235672404],[""3"",-0.14907406304997425,0.2870370338636416],[""3"",-0.15462961868831404,0.18981481019269536],[""3"",-0.137036969319537,0.12314814253261795],[""3"",-0.12777770992230403,0.13148147599012763],[""3"",-0.12037035891855205,0.12407404021532405],[""3"",-0.11944443297882874,0.11388888313538498],[""1"",-0.03796295028317858,0.11203703125593839],[""1"",-0.03611109840373198,0.11018515111947459],[""3"",-0.11574072921993556,0.11851851283400147],[""3"",-0.11203702546104237,0.11574073501483158],[""3"",-0.17962961906084307,0.12407404021532405],[""4"",-0.129629618315785,0.16574070750287243],[""4"",-0.09722221042546961,0.13148147599012763],[""5"",-0.04907400504582374,0.23518518123913695],[""5"",-0.03703702434345528,0.2157407365049477],[""5"",-0.0657407284748775,0.2157407365049477],[""5"",-0.059259246896814416,0.2129629586857778],[""1"",-0.001851838633969978,0.12314814253261795],[""5"",-0.046296283740688254,0.13055555005040434],[""5"",-0.046296283740688254,0.12962962411068105],[""6"",-0.12592591455689184,0.23888888499803013],[""6"",-0.15092585841538644,0.22685184778162726],[""6"",-0.1435185074116345,0.23425925529941363],[""6"",-0.2435184523877162,0.16388888388044304],[""6"",-0.2712962305794151,0.12407404021532405],[""6"",-0.2453703607811972,0.1444444391462538],[""7"",-0.01574072772981944,0.3148148120553405],[""7"",-0.21203702695115847,0.2870370338636416],[""7"",-0.19537036003613914,0.27499998251873015],[""7"",-0.18055554500056636,0.27499998251873015],[""7"",-0.16851850778416352,0.2768518485266853],[""7"",-0.1694443772098524,0.28240740416502513],[""7"",-0.1407407295924646,0.13333329961255702],[""7"",-0.1342592480144015,0.1342592538092975],[""7"",-0.1342592480144015,0.13518517974902083]]","G,B,F,C,E,A,D",12,0.5161,161.8807,,,0.435185205,-0.325000012,1,0,0,[],0,0.5156,1.2,0,0,0,0,1,materials/merge_sort/imgs/fruits/apple,12,,,,,,,,,,,,,,,,,,,,,,,,,,,,,,,
,,,,,,,,,,,,,,,,,,,,,,,,,,,,,,,,,,,,,,,,,,,,,,,,,,,,,cs01,001,2021-10-01_20h55.53.802,seq_teaching_exp,2021.2.3,Win32,59.85873339,,,,,,,,,,,,,,,,,,,,,,,,,,,,,,,,B,G,"G,B,F,E,A,C,D",0.500000021,-0.360185198,1,0,0,"[""6"",""2"",""4"",""7"",""5"",""3"",""1""]","[""'C'"",""'B'"",""'E'"",""'D'"",""'A'"",""'F'"",""'G'""]","[[""1"",-0.23425919299048323,0.26296295943083586],[""1"",-0.01574072772981944,0.12129629065317137],[""1"",0.05092593993025797,0.12037036471344807],[""1"",0.052777848323738975,0.12129629065317137],[""2"",-0.2037036934936488,0.29999999701976776],[""2"",-0.1027777660638094,0.12129629065317137],[""2"",-0.05092591343930474,0.12129629065317137],[""2"",-0.04999998749958144,0.12222221659289466],[""2"",-0.059259246896814416,0.12222221659289466],[""2"",-0.10833332170214918,0.11851851283400147],[""2"",-0.12129628485827534,0.11296295719566168],[""2"",-0.12037035891855205,0.11203703125593839],[""3"",-0.1333333220746782,0.22129629214328747],[""3"",-0.04907400504582374,0.18703703237352548],[""3"",-0.03240739464483879,0.19259258801186527],[""3"",-0.03148146870511549,0.19259258801186527],[""3"",-0.03148146870511549,0.18888885599595487],[""3"",-0.03240739464483879,0.18888885599595487],[""3"",-0.034259246524285386,0.1444444391462538],[""3"",-0.035185115949974276,0.1055555214208581],[""3"",-0.028703690885945602,0.11203703125593839],[""1"",0.09907408879586944,0.12499999441206455],[""1"",0.10648149631365582,0.11944441051670757],[""2"",-0.14907406304997425,0.11666666095455487],[""2"",-0.14907406304997425,0.11574073501483158],[""4"",-0.08333332132962015,0.26296295943083586],[""4"",0.053703717749427865,0.20185184740909823],[""4"",0.05925927338776765,0.20370369928854484],[""4"",0.04444445835219489,0.19907406958992835],[""4"",0.09722223691642284,0.18240740267490899],[""4"",0.19166668276819918,0.12314814253261795],[""4"",0.1861111271298594,0.12037036471344807],[""5"",-0.019444431488712628,0.2564814778527728],[""5"",0.05833334744804435,0.19907406958992835],[""5"",0.05555556962887446,0.19907406958992835],[""5"",0.047222236171364784,0.19999999552965164],[""5"",0.0407407545933017,0.11388888313538498],[""5"",0.0407407545933017,0.11296295719566168],[""6"",-0.0009259126942466806,0.29907407108004447],[""6"",-0.08703702508851334,0.19629629177075844],[""6"",-0.07685178323752266,0.20185184740909823],[""6"",-0.08518517320906674,0.18703703237352548],[""6"",-0.07870369163100366,0.11481478081809107],[""6"",-0.07870369163100366,0.1074074015573219],[""6"",-0.08796295102823663,0.11203703125593839],[""6"",-0.09166665478712982,0.11388888313538498],[""7"",0.03333334707551532,0.30833333047727746],[""7"",-0.1305555442555083,0.26759258912945233],[""7"",-0.1407407295924646,0.2564814778527728],[""7"",-0.138888877713018,0.25462962597332617],[""7"",-0.21944443446894488,0.11388888313538498],[""7"",-0.21666665664977497,0.11574073501483158]]","G,B,F,E,A,C,D",12,0.5058,113.0005,,,0.500000021,-0.360185198,1,0,0,[],0,0.5147,1.6144,0,1,1,1,1,materials/merge_sort/imgs/fruits/banana,12,,,,,,,,,,,,,,,,,,,,,,,,,,,,,,,
,,,,,,,,,,,,,,,,,,,,,,,,,,,,,,,,,,,,,,,,,,,,,,,,,,,,,cs01,001,2021-10-01_20h55.53.802,seq_teaching_exp,2021.2.3,Win32,59.85873339,,,,,,,,,,,,,,,,,,,,,,,,,,,,,,,,E,A,"D,I,J,E,A,C,B,G,F,H",0.47500002,-0.35740742,1,0,0,"[""8"",""6"",""4"",""3"",""2"",""10"",""9"",""7"",""1"",""5""]","[""'G'"",""'C'"",""'E'"",""'J'"",""'I'"",""'H'"",""'F'"",""'B'"",""'D'"",""'A'""]","[[""1"",-0.21574067419601728,0.2796296122173466],[""1"",0.0777777921822336,0.13333329961255702],[""1"",0.10925927413282571,0.13055555005040434],[""2"",-0.1768518412416732,0.26944444100889897],[""2"",-0.04074072810234847,0.13611110568874413],[""2"",-0.00462961645313987,0.13611110568874413],[""2"",-0.006481468332586465,0.13333329961255702],[""3"",-0.1342592480144015,0.18796295831324877],[""3"",-0.1407407295924646,0.1435185132065305],[""3"",-0.1407407295924646,0.14166666132708391],[""3"",-0.1407407295924646,0.14074073538736062],[""4"",-0.09444443260629971,0.24444444063636991],[""4"",-0.07592591381183376,0.22592592184190396],[""4"",-0.19722215540155133,0.2092592549268846],[""4"",-0.22499993359325024,0.1490740688448703],[""4"",-0.2361111013839642,0.14074073538736062],[""5"",-0.053703634744440225,0.29999999701976776],[""5"",-0.19629628597586243,0.24444444063636991],[""5"",-0.2037036934936488,0.24166666281720003],[""5"",-0.20092591567447893,0.25555555191304946],[""5"",-0.2870370280687456,0.22777777372135055],[""5"",-0.30277776904404163,0.15277777260376346],[""5"",-0.3055555468632115,0.13703703162846742],[""5"",-0.3064814728029348,0.13703703162846742],[""6"",-0.05833326444305671,0.23981481093775342],[""6"",-0.053703634744440225,0.22407406996245738],[""6"",-0.05648146907764452,0.2222222180830108],[""6"",0.006481551337574105,0.2175925883843943],[""6"",0.0805555700014035,0.21111110680633122],[""6"",0.06388890308638413,0.21018518086660792],[""6"",0.09629631097669955,0.19259258801186527],[""6"",0.1805555714915196,0.1453703650859771],[""6"",0.187962979009306,0.1435185132065305],[""6"",0.19444446058736908,0.13703703162846742],[""7"",0.01574081073480708,0.27314814476779214],[""7"",-0.05462961719819793,0.2175925883843943],[""7"",-0.0648148025351542,0.2175925883843943],[""7"",-0.07037035817349399,0.2222222180830108],[""7"",-0.00833332021203306,0.2175925883843943],[""7"",0.10370371849448592,0.22777777372135055],[""7"",0.1861111271298594,0.19907406958992835],[""7"",0.16203705269705365,0.19259258801186527],[""6"",0.2675926098255096,0.12129629065317137],[""6"",0.2694444617049562,0.12037036471344807],[""7"",0.1851852011901361,0.13703703162846742],[""7"",0.19074075682847588,0.13055555005040434],[""8"",0.07129631060417052,0.22037036620356418],[""8"",0.06203705120693754,0.19537036583103515],[""8"",0.06388890308638413,0.20092592146937494],[""8"",0.06296297714666084,0.2083333289871613],[""8"",0.07222223654389381,0.2083333289871613],[""8"",0.1111111260122723,0.2092592549268846],[""8"",0.11666668165061209,0.2092592549268846],[""8"",0.11388890383144219,0.2092592549268846],[""8"",0.0768518662425103,0.16759258763933624],[""8"",0.05740747802235546,0.14629629102570038],[""8"",0.054629643689151165,0.1435185132065305],[""8"",0.05185186586998127,0.13055555005040434],[""9"",0.14166668202314112,0.3074073904090455],[""9"",0.08888890345891316,0.2972222192005979],[""9"",-0.045370357800964954,0.260185181611666],[""9"",-0.07129628411321728,0.22685184778162726],[""9"",-0.09629628448574631,0.24166666281720003],[""9"",-0.21111104449740078,0.23611110717886025],[""9"",-0.26574073145510974,0.22037036620356418],[""9"",-0.25833332393732333,0.21944444026384088],[""9"",-0.3462962882110366,0.1759259210968459],[""9"",-0.3592592513671628,0.1435185132065305],[""9"",-0.3592592513671628,0.1398148094476373],[""10"",-0.01666659715550833,0.2777777744664086],[""10"",-0.08796295102823663,0.2499999962747097],[""10"",-0.06666665441460079,0.2453703665760932],[""10"",-0.0657407284748775,0.24444444063636991],[""10"",-0.09999993173060509,0.24074073687747674],[""10"",-0.2499999904798137,0.2148148105652244],[""10"",-0.25370369423870687,0.2148148105652244],[""10"",-0.2398148051428574,0.2092592549268846],[""10"",-0.18703702657862945,0.20185184740909823],[""10"",-0.1768518412416732,0.20462962522826814],[""10"",-0.1768518412416732,0.2083333289871613],[""10"",-0.11296295140076566,0.16666666169961294],[""10"",-0.08148141293613914,0.14074073538736062]]","D,I,J,E,A,C,B,G,F,H",22,0.5131,218.1065,,,0.47500002,-0.35740742,1,0,0,[],0,0.5115,2.3776,0,2,2,2,1,materials/merge_sort/imgs/fruits/melon,21,,,,,,,,,,,,,,,,,,,,,,,,,,,,,,,
,,,,,,,,,,,,,,,,,,,,,,,,,,,,,,,,,,,,,,,,,,,,,,,,,,,,,cs01,001,2021-10-01_20h55.53.802,seq_teaching_exp,2021.2.3,Win32,59.85873339,,,,,,,,,,,,,,,,,,,,,,,,,,,,,,,,,,,,,,,,,,,,,,,,,,,,,,,,,,,,,,,materials/merge_sort/imgs/fruits/melon,,0.009259273,-0.402777791,1,0,0,12.9062,B,G,"G,B,D,F,E,C,A",0.497222243,-0.33240742,1,0,0,"[""5"",""2"",""6"",""7"",""4"",""3"",""1""]","[""'E'"",""'B'"",""'C'"",""'A'"",""'F'"",""'D'"",""'G'""]","[[""1"",-0.1703703596636101,0.23981481093775342],[""1"",0.09351853315752966,0.10277777185870542],[""1"",0.10555557037393253,0.10185184591898212],[""2"",-0.11388882082645456,0.13518517974902083],[""2"",-0.05462961719819793,0.1092592534367685],[""2"",-0.03611109840373198,0.1064814756175986],[""3"",-0.03333332058456209,0.19444443989131185],[""3"",0.038888959227889514,0.17222221733795273],[""3"",0.1842592752504128,0.1111111053162151],[""3"",0.20648149780377192,0.09722221622036563],[""3"",0.20648149780377192,0.09814814216008892],[""4"",-0.09166665478712982,0.30370370077866093],[""4"",0.10648149631365582,0.19444443989131185],[""4"",0.14074075608341782,0.18981481019269536],[""4"",0.17592594179290313,0.1851851804940789],[""4"",0.1750000158531798,0.1787036989160158],[""4"",0.27314816546384935,0.1111111053162151],[""4"",0.2842592767405289,0.10277777185870542],[""5"",-0.05555554313792123,0.30277776071042906],[""5"",0.03333334707551532,0.16851851357905953],[""5"",0.041666680533025,0.18240740267490899],[""5"",0.05000001399053468,0.1805555507954624],[""5"",0.034259329529273026,0.11203703125593839],[""6"",-0.001851838633969978,0.2898148116828115],[""6"",0.05555556962887446,0.18240740267490899],[""6"",0.07500001436306371,0.1787036989160158],[""6"",0.08148149594112679,0.18425922629733837],[""6"",0.05185186586998127,0.1814814767351857],[""6"",-0.00833332021203306,0.1787036989160158],[""6"",0.010185198582432888,0.1768518470365692],[""5"",0.07037038466444721,0.11388888313538498],[""5"",0.06388890308638413,0.1083333274970452],[""5"",0.061111125267214246,0.1074074015573219],[""6"",0.009259272642709591,0.12222221659289466],[""6"",0.011111181036190592,0.11574073501483158],[""6"",0.012037050461879483,0.11574073501483158],[""6"",0.01296297640160278,0.1064814756175986],[""7"",0.020370440433423568,0.19444443989131185],[""7"",0.034259329529273026,0.1787036989160158],[""7"",0.04444445835219489,0.18240740267490899],[""7"",0.02685186549745224,0.1787036989160158],[""7"",-0.09999993173060509,0.12222221659289466],[""7"",-0.1018518401240861,0.11388888313538498]]","G,B,D,F,E,C,A",12,0.5164,112.8209,0,0,0,0,1,,,,,
,,,,,,,,,,,,,,,,,,,,,,,,,,,,,,,,,,,,,,,,,,,,,,,,,,,,,cs01,001,2021-10-01_20h55.53.802,seq_teaching_exp,2021.2.3,Win32,59.85873339,,,,,,,,,,,,,,,,,,,,,,,,,,,,,,,,,,,,,,,,,,,,,,,,,,,,,,,,,,,,,,,materials/merge_sort/imgs/fruits/banana,,,,,,,,G,E,"E,G,C,F,B,D,A",0.53888891,-0.342592605,1,0,0,"[""7"",""2"",""6"",""3"",""5"",""4"",""1""]","[""'A'"",""'G'"",""'D'"",""'C'"",""'B'"",""'F'"",""'E'""]","[[""1"",-0.025925856552741305,0.1759259210968459],[""1"",0.12500001510812175,0.11666666095455487],[""2"",-0.00462961645313987,0.11666666095455487],[""2"",0.01944445797966586,0.12685184629151114],[""2"",0.010185198582432888,0.12037036471344807],[""3"",-0.027777764946222305,0.2083333289871613],[""3"",0.04814821862512249,0.1861111064338022],[""3"",0.05833334744804435,0.18425922629733837],[""1"",0.14537038578203432,0.11574073501483158],[""1"",0.2611111282474465,0.11296295719566168],[""3"",0.14537038578203432,0.11296295719566168],[""3"",0.13333334856563145,0.12222221659289466],[""3"",0.12407408916839847,0.12222221659289466],[""4"",-0.09814813636519291,0.2907407376225348],[""4"",0.02685186549745224,0.1805555507954624],[""4"",0.07500001436306371,0.1796295965987219],[""4"",0.07407408842334041,0.19537036583103515],[""4"",0.07407408842334041,0.1861111064338022],[""4"",0.07407408842334041,0.18796295831324877],[""4"",0.06666668090555403,0.13055555005040434],[""4"",0.06944445872472392,0.12407404021532405],[""3"",0.12222223728895187,0.12222221659289466],[""3"",0.13703705232452462,0.12314814253261795],[""3"",0.13981483014369453,0.11944441051670757],[""2"",-0.046296283740688254,0.11944441051670757],[""2"",-0.08518517320906674,0.11944441051670757],[""4"",0.004629642944093104,0.11203703125593839],[""4"",0.02777779143717554,0.12592592035178785],[""4"",0.03333334707551532,0.11759258689427818],[""5"",-0.03888887622290187,0.28148147822530184],[""5"",0.028703717376898835,0.23333332935969034],[""5"",0.07962964406168019,0.18981481019269536],[""5"",0.08518519970001998,0.18425922629733837],[""5"",0.08888890345891316,0.1796295965987219],[""5"",0.09259260721780636,0.12222221659289466],[""5"",0.08796297751918987,0.12499999441206455],[""6"",0.01666668016049597,0.20740740304743802],[""6"",0.06388890308638413,0.18333332861463228],[""6"",0.06574075496583073,0.1851851804940789],[""6"",0.06296297714666084,0.1851851804940789],[""6"",-0.01666659715550833,0.1851851804940789],[""6"",-0.028703690885945602,0.18333332861463228],[""6"",-0.027777764946222305,0.1796295965987219],[""6"",-0.02222220930788252,0.1796295965987219],[""6"",0.030555569256345432,0.15648144810563946],[""6"",0.05833334744804435,0.12499999441206455],[""6"",0.028703717376898835,0.1092592534367685],[""6"",-0.017592579609266034,0.11203703125593839],[""6"",-0.01666659715550833,0.11481478081809107],[""6"",-0.01574072772981944,0.11481478081809107],[""6"",0.036111124894685216,0.11666666095455487],[""6"",0.052777848323738975,0.11481478081809107],[""6"",-0.013888875850372844,0.11944441051670757],[""6"",-0.03240739464483879,0.11944441051670757],[""4"",-0.023148135247605818,0.0731481135305427],[""6"",0.013888902341326078,0.12870366991394053],[""6"",0.041666680533025,0.12314814253261795],[""4"",-0.011111098031202951,0.11203703125593839],[""4"",-0.011111098031202951,0.11574073501483158],[""7"",0.053703717749427865,0.3055555526581075],[""7"",0.047222236171364784,0.2888888716145796],[""7"",0.020370440433423568,0.2129629586857778],[""7"",0.017592606100219267,0.20370369928854484],[""7"",-0.07314813599266388,0.1749999669001054],[""7"",-0.11574072921993556,0.12314814253261795],[""7"",-0.14259258147191117,0.11296295719566168]]","E,G,C,F,B,D,A",12,0.5007,135.0086,0,1,1,1,1,,,,,
,,,,,,,,,,,,,,,,,,,,,,,,,,,,,,,,,,,,,,,,,,,,,,,,,,,,,cs01,001,2021-10-01_20h55.53.802,seq_teaching_exp,2021.2.3,Win32,59.85873339,,,,,,,,,,,,,,,,,,,,,,,,,,,,,,,,,,,,,,,,,,,,,,,,,,,,,,,,,,,,,,,materials/merge_sort/imgs/fruits/apple,,,,,,,,E,C,"G,C,E,A,F,D,B",0.426851871,-0.32314816,1,0,0,"[""7"",""5"",""3"",""6"",""1"",""4"",""2""]","[""'B'"",""'F'"",""'E'"",""'D'"",""'G'"",""'A'"",""'C'""]","[[""1"",-0.24814808208633268,0.3055555526581075],[""1"",0.06574075496583073,0.13333329961255702],[""1"",0.08425927376029668,0.12685184629151114],[""2"",-0.16296295214582374,0.18703703237352548],[""2"",-0.11203702546104237,0.13333329961255702],[""2"",-0.06944443223377068,0.12777777223123443],[""3"",-0.16481474751123593,0.2861111079239183],[""3"",-0.1990740637950323,0.12037036471344807],[""3"",-0.21944443446894488,0.13055555005040434],[""4"",-0.10462956142922158,0.30277776071042906],[""4"",-0.009259246151756358,0.20555555116799143],[""4"",-0.006481468332586465,0.20462962522826814],[""4"",-0.007407337758275356,0.2148148105652244],[""4"",-0.00833332021203306,0.14074073538736062],[""4"",1.3245476616753471e-8,0.13240740192985093],[""5"",-0.046296283740688254,0.3046296267183842],[""5"",-0.14537035929108108,0.23333332935969034],[""5"",-0.14166659901815348,0.22407406996245738],[""5"",-0.1398148036527413,0.21944444026384088],[""5"",-0.30185184310431834,0.16296295794071974],[""5"",-0.30277776904404163,0.13611110568874413],[""5"",-0.30277776904404163,0.12407404021532405],[""5"",-0.30277776904404163,0.13518517974902083],[""5"",-0.29999999122487175,0.12685184629151114],[""6"",0.004629642944093104,0.30277776071042906],[""6"",-0.14722221117052767,0.23703703311858354],[""6"",-0.15277776680886745,0.23240740341996705],[""6"",-0.1666666559047169,0.23333332935969034],[""6"",-0.26203697118218217,0.22592592184190396],[""6"",-0.25555554611815345,0.22314814402273409],[""6"",-0.26018517581677,0.23055555154052046],[""6"",-0.16018511781261943,0.14074073538736062],[""6"",-0.15833332244720724,0.13703703162846742],[""6"",-0.15277776680886745,0.13240740192985093],[""7"",0.047222236171364784,0.29999999701976776],[""7"",-0.15092585841538644,0.26666666318972904],[""7"",-0.18518517469918286,0.2583333297322194],[""7"",-0.18425924875945957,0.25462962597332617],[""7"",-0.2425925829620273,0.22129629214328747],[""7"",-0.25370369423870687,0.2120370327460545],[""7"",-0.2518518423592603,0.2092592549268846],[""7"",-0.26666660088079863,0.13611110568874413],[""7"",-0.26388887957566315,0.13240740192985093],[""7"",-0.26296295363593986,0.12870366991394053]]","G,C,E,A,F,D,B",12,0.5109,102.944,0,2,2,2,1,,,,,
,,,,,,,,,,,,,,,,,,,,,,,,,,,,,,,,,,,,,,,,,,,,,,,,,,,,,cs01,001,2021-10-01_20h55.53.802,seq_teaching_exp,2021.2.3,Win32,59.85873339,,,,,,,,,,,,,,,,,,,,,,,,,,,,,,,,,,,,,,,,,,,,,,,,,,,,,,,,,,,,,,,materials/merge_sort/imgs/fruits/banana,,,,,,,,G,F,"F,G,C,E,B,A,D",0.48425928,-0.32777779,1,0,0,"[""4"",""7"",""2"",""6"",""3"",""5"",""1""]","[""'E'"",""'D'"",""'G'"",""'A'"",""'C'"",""'B'"",""'F'""]","[[""1"",-0.18796289600431834,0.16203703200099645],[""1"",-0.17870363660708538,0.12592592035178785],[""2"",-0.18611110063890615,0.29259258950198136],[""2"",-0.11111109952131908,0.2157407365049477],[""2"",0.041666680533025,0.13055555005040434],[""2"",0.0787037181219569,0.12499999441206455],[""3"",-0.26388887957566315,0.16388888388044304],[""3"",-0.3166666581398911,0.12129629065317137],[""3"",-0.3222222137782309,0.12499999441206455],[""4"",-0.08148141293613914,0.23981481093775342],[""4"",-0.053703634744440225,0.1851851804940789],[""4"",-0.053703634744440225,0.13611110568874413],[""4"",-0.05648146907764452,0.11944441051670757],[""4"",-0.053703634744440225,0.13055555005040434],[""5"",-0.046296283740688254,0.3074073904090455],[""5"",-0.051851839379028035,0.30648147859783087],[""5"",-0.11296295140076566,0.3046296267183842],[""5"",-0.25555554611815345,0.24814814439526311],[""5"",-0.2527777117849492,0.18333332861463228],[""5"",-0.250925916419537,0.12222221659289466],[""6"",0.0055555688838164015,0.30092592295949105],[""6"",-0.12129628485827534,0.24444444063636991],[""6"",-0.11388882082645456,0.21111110680633122],[""6"",-0.11759258109938216,0.20555555116799143],[""6"",-0.11944443297882874,0.11296295719566168],[""6"",-0.11759258109938216,0.12777777223123443],[""6"",-0.11759258109938216,0.12870366991394053],[""7"",-0.010185172091479655,0.3129629601758939],[""7"",-0.15185184086914416,0.2972222192005979],[""7"",-0.21666665664977497,0.23055555154052046],[""7"",-0.21944443446894488,0.22685184778162726],[""7"",-0.21574067419601728,0.22870369966107387],[""7"",-0.2064814147987843,0.23333332935969034],[""7"",-0.29907406528514846,0.21111110680633122],[""7"",-0.3555555476082696,0.15370369854348678],[""7"",-0.3601851773068861,0.14166666132708391],[""7"",-0.37314814046301226,0.13055555005040434]]","F,G,C,E,B,A,D",10,0.513,94.4667,0,3,3,3,1,,,,,
,,,,,,,,,,,,,,,,,,,,,,,,,,,,,,,,,,,,,,,,,,,,,,,,,,,,,cs01,001,2021-10-01_20h55.53.802,seq_teaching_exp,2021.2.3,Win32,59.85873339,,,,,,,,,,,,,,,,,,,,,,,,,,,,,,,,,,,,,,,,,,,,,,,,,,,,,,,,,,,,,,,materials/merge_sort/imgs/fruits/apple,,,,,,,,B,A,"F,D,A,B,E,H,I,C,G,J",0.558333355,-0.360185198,1,0,0,"[""5"",""7"",""6"",""1"",""4"",""9"",""8"",""10"",""2"",""3""]","[""'E'"",""'I'"",""'H'"",""'F'"",""'B'"",""'G'"",""'C'"",""'J'"",""'D'"",""'A'""]","[[""2"",-0.02499998712705241,0.1814814767351857],[""2"",0.13333334856563145,0.12499999441206455],[""2"",0.1435185339025877,0.1092592534367685],[""1"",-0.137036969319537,0.2129629586857778],[""1"",-0.01574072772981944,0.10092589172224162],[""1"",0.020370440433423568,0.08981480870257925],[""1"",0.01666668016049597,0.10092589172224162],[""1"",0.01574081073480708,0.10277777185870542],[""3"",-0.1351851739541248,0.27129629288834556],[""3"",-0.09999993173060509,0.22870369966107387],[""3"",-0.08611104263475564,0.22407406996245738],[""3"",-0.08240739538989685,0.2222222180830108],[""3"",-0.007407337758275356,0.21111110680633122],[""3"",0.0787037181219569,0.18981481019269536],[""3"",0.07962964406168019,0.18981481019269536],[""3"",0.07962964406168019,0.18888885599595487],[""3"",0.0787037181219569,0.1074074015573219],[""2"",0.2166666831407282,0.09166663232500864],[""3"",0.10648149631365582,0.09351851246147244],[""3"",0.12685186698756837,0.09629626202362512],[""4"",-0.1027777660638094,0.31203702010766204],[""4"",0.02777779143717554,0.19814811539318786],[""4"",0.06574075496583073,0.1768518470365692],[""4"",0.061111125267214246,0.18240740267490899],[""4"",-0.05648146907764452,0.11574073501483158],[""4"",-0.0648148025351542,0.10370369779842871],[""4"",-0.07129628411321728,0.10370369779842871],[""4"",-0.07222215353890617,0.10370369779842871],[""5"",-0.03240739464483879,0.19722221771048176],[""5"",-0.03240739464483879,0.17222221733795273],[""4"",-0.08425924726934345,0.104629623738152],[""4"",-0.16111110026637712,0.09999999403953552],[""5"",-0.10555554388297929,0.11851851283400147],[""5"",-0.07962961757072697,0.1111111053162151],[""5"",-0.07685178323752266,0.1111111053162151],[""5"",-0.08055554351045026,0.10185184591898212],[""5"",-0.07962961757072697,0.10370369779842871],[""6"",-0.001851838633969978,0.30925925641700075],[""6"",0.07037038466444721,0.18981481019269536],[""6"",0.07962964406168019,0.1768518470365692],[""6"",0.07407408842334041,0.1768518470365692],[""6"",0.1527777932998207,0.18240740267490899],[""6"",0.17592594179290313,0.1712962913982294],[""6"",0.18240742337096622,0.1749999669001054],[""6"",0.29907409177610167,0.1083333274970452],[""6"",0.29907409177610167,0.09444443840119573],[""7"",0.05000001399053468,0.2583333297322194],[""7"",0.06666668090555403,0.1787036989160158],[""7"",0.26296298012689306,0.1796295965987219],[""7"",0.26388890606661636,0.16203703200099645],[""7"",0.26203705418716977,0.16388888388044304],[""6"",0.33611112936503357,0.09907406809981223],[""6"",0.3518518703403296,0.09999999403953552],[""6"",0.35462964815949954,0.09259258652174915],[""7"",0.2583333504282766,0.17222221733795273],[""7"",0.27870372110218916,0.11203703125593839],[""7"",0.28148149892135904,0.09629626202362512],[""8"",0.1527777932998207,0.216666662444671],[""8"",0.16759260833539344,0.16388888388044304],[""8"",0.17129631209428664,0.16203703200099645],[""8"",0.16388890457650027,0.16944443951878282],[""8"",0.3046297604425103,0.16944443951878282],[""8"",0.31388901983974327,0.16018518012154986],[""8"",0.3148148327513977,0.16018518012154986],[""8"",0.3675926113156257,0.15370369854348678],[""8"",0.38333346531899054,0.1083333274970452],[""8"",0.38425927823064504,0.09814814216008892],[""9"",0.09722223691642284,0.2453703665760932],[""9"",0.06296297714666084,0.1768518470365692],[""9"",0.06388890308638413,0.1759259210968459],[""9"",-0.04166665404207177,0.18425922629733837],[""9"",-0.12222221079799864,0.18333332861463228],[""9"",-0.12129628485827534,0.18333332861463228],[""4"",-0.22962956329186673,0.1111111053162151],[""9"",-0.15277776680886745,0.15092592072431688],[""9"",-0.16018511781261943,0.11851851283400147],[""10"",0.10740742225337911,0.29351850131319607],[""10"",0.05740747802235546,0.20648147710771472],[""10"",0.060185199327490946,0.18425922629733837],[""10"",0.06203705120693754,0.18333332861463228],[""10"",0.05925927338776765,0.18703703237352548],[""10"",0.034259329529273026,0.18888885599595487],[""10"",-0.1009259141843628,0.18796295831324877],[""10"",-0.11574072921993556,0.18333332861463228],[""10"",-0.11018517358159577,0.17314814327767603],[""10"",-0.12407406267744524,0.12499999441206455],[""10"",-0.12037035891855205,0.11759258689427818],[""10"",-0.12314808022368753,0.11388888313538498]]","F,D,A,B,E,H,I,C,G,J",22,0.5088,213.9801,0,4,4,4,1,,,,,
,,,,,,,,,,,,,,,,,,,,,,,,,,,,,,,,,,,,,,,,,,,,,,,,,,,,,cs01,001,2021-10-01_20h55.53.802,seq_teaching_exp,2021.2.3,Win32,59.85873339,,,,,,,,,,,,,,,,,,,,,,,,,,,,,,,,,,,,,,,,,,,,,,,,,,,,,,,,,,,,,,,,,,,,,,,,,,,,,,,,,,,,,,,,,,,0.099074089,-0.137962972,1,0,0
