background_mouse.x,background_mouse.y,background_mouse.leftButton,background_mouse.midButton,background_mouse.rightButton,demographic_age,demographic_education,demographic_gender,background.tEnd,intro_mouse.x,intro_mouse.y,intro_mouse.leftButton,intro_mouse.midButton,intro_mouse.rightButton,intro.tEnd,hint_mouse.x,hint_mouse.y,hint_mouse.leftButton,hint_mouse.midButton,hint_mouse.rightButton,hint.tEnd,sort_intro_mouse.x,sort_intro_mouse.y,sort_intro_mouse.leftButton,sort_intro_mouse.midButton,sort_intro_mouse.rightButton,sort_intro.tEnd,sort_train_scale_right.text,sort_train_scale_left.text,sort_train_res.text,sort_train_mouse.x,sort_train_mouse.y,sort_train_mouse.leftButton,sort_train_mouse.midButton,sort_train_mouse.rightButton,sort_train_input,sort_train_labels,sort_train_trace,sort_train_compareN,sort_train.tStart,sort_train.tEnd,sort_train_compare_records,sort_expl_scale_right.text,sort_expl_scale_left.text,sort_expl_mouse.x,sort_expl_mouse.y,sort_expl_mouse.leftButton,sort_expl_mouse.midButton,sort_expl_mouse.rightButton,sort_expl_trace,sort_expl_compareN,sort_expl_compare_records,sort_expl.tStart,sort_expl.tEnd,TRAIN_2.thisRepN,TRAIN_2.thisTrialN,TRAIN_2.thisN,TRAIN_2.thisIndex,TRAIN_2.ran,img_path_base,input,encryption,ms_compare,participant,session,date,expName,psychopyVersion,OS,frameRate,merge_intro_mouse.x,merge_intro_mouse.y,merge_intro_mouse.leftButton,merge_intro_mouse.midButton,merge_intro_mouse.rightButton,merge_intro.tEnd,merge_train_scale_right.text,merge_train_scale_left.text,merge_train_mouse.x,merge_train_mouse.y,merge_train_mouse.leftButton,merge_train_mouse.midButton,merge_train_mouse.rightButton,merge_train_mouse.clicked_name,merge_train.tStart,mc_order,merge_train_compareN,merge_train_labels,merge_train_input,merge_train_compare_records,merge_train_mouse_clicked,merge_train.tEnd,merge_expl_mouse.x,merge_expl_mouse.y,merge_expl_mouse.leftButton,merge_expl_mouse.midButton,merge_expl_mouse.rightButton,merge_expl.tStart,merge_expl.tEnd,TRAIN_1.thisRepN,TRAIN_1.thisTrialN,TRAIN_1.thisN,TRAIN_1.thisIndex,TRAIN_1.ran,img_path,mc_path_1,mc_path_2,merge_test_intro_mouse.x,merge_test_intro_mouse.y,merge_test_intro_mouse.leftButton,merge_test_intro_mouse.midButton,merge_test_intro_mouse.rightButton,merge_test_intro.tEnd,merge_test_scale_right.text,merge_test_scale_left.text,merge_test_res.text,merge_test_mouse.x,merge_test_mouse.y,merge_test_mouse.leftButton,merge_test_mouse.midButton,merge_test_mouse.rightButton,merge_test_input,merge_test_labels,merge_test_compareN,merge_test_compare_records,merge_test.tStart,merge_test.tEnd,TEST_1.thisRepN,TEST_1.thisTrialN,TEST_1.thisN,TEST_1.thisIndex,TEST_1.ran,sort_test_intro_mouse.x,sort_test_intro_mouse.y,sort_test_intro_mouse.leftButton,sort_test_intro_mouse.midButton,sort_test_intro_mouse.rightButton,sort_test_intro.tEnd,sort_test_scale_right.text,sort_test_scale_left.text,sort_test_res.text,sort_test_mouse.x,sort_test_mouse.y,sort_test_mouse.leftButton,sort_test_mouse.midButton,sort_test_mouse.rightButton,sort_test_input,sort_test_labels,sort_test_trace,sort_test_compare_records,sort_test_compareN,sort_test.tStart,sort_test.tEnd,TEST_2.thisRepN,TEST_2.thisTrialN,TEST_2.thisN,TEST_2.thisIndex,TEST_2.ran,exp_check_res.text,exp_check_mouse.x,exp_check_mouse.y,exp_check_mouse.leftButton,exp_check_mouse.midButton,exp_check_mouse.rightButton,exp_check.tEnd,debrief_mouse.x,debrief_mouse.y,debrief_mouse.leftButton,debrief_mouse.midButton,debrief_mouse.rightButton
-0.025219298,-0.413377193,1,0,0,_18_24,college,female,64.154,-0.037280702,-0.395833333,1,0,0,20.543,-0.037280702,-0.395833333,1,0,0,8.718,-0.049342105,-0.404605263,1,0,0,38.893,E,F,EFCDAB,0.447368421,-0.365131579,1,0,0,"[""5"",""4"",""6"",""3"",""1"",""2""]","[""'A'"",""'D'"",""'B'"",""'C'"",""'E'"",""'F'""]","[[""1"",-0.1611842105263158,0.18530701754385964],[""1"",-0.15570175438596492,0.17543859649122806],[""2"",-0.20285087719298245,0.30701754385964913],[""2"",-0.17105263157894737,0.27960526315789475],[""3"",-0.12609649122807018,0.23684210526315788],[""3"",-0.0581140350877193,0.1962719298245614],[""3"",-0.06578947368421052,0.18201754385964913],[""3"",-0.08662280701754387,0.17763157894736842],[""3"",-0.08771929824561403,0.17763157894736842],[""2"",-0.18859649122807018,0.2807017543859649],[""2"",-0.20394736842105263,0.26973684210526316],[""2"",-0.1962719298245614,0.26973684210526316],[""2"",-0.17763157894736842,0.26535087719298245],[""2"",-0.21710526315789475,0.25219298245614036],[""2"",-0.20065789473684212,0.2741228070175439],[""2"",-0.25877192982456143,0.2807017543859649],[""2"",-0.17324561403508773,0.2149122807017544],[""2"",-0.33223684210526316,0.19407894736842105],[""2"",-0.3991228070175439,0.22587719298245615],[""2"",-0.3980263157894737,0.2412280701754386],[""2"",-0.3651315789473684,0.23574561403508773],[""2"",-0.19078947368421054,0.26096491228070173],[""3"",-0.08881578947368421,0.18530701754385964],[""3"",-0.20942982456140352,0.16885964912280702],[""3"",-0.20723684210526316,0.1787280701754386],[""3"",-0.20942982456140352,0.17653508771929824],[""1"",-0.22697368421052633,0.15899122807017543],[""1"",-0.24780701754385964,0.18092105263157895],[""3"",-0.20833333333333334,0.18640350877192982],[""3"",-0.19078947368421054,0.18969298245614036],[""3"",-0.19517543859649122,0.17434210526315788],[""3"",-0.19846491228070176,0.18201754385964913],[""2"",-0.21929824561403508,0.16228070175438597],[""2"",-0.22149122807017543,0.18311403508771928],[""2"",-0.1962719298245614,0.19078947368421054],[""2"",-0.18421052631578946,0.19078947368421054],[""2"",-0.2236842105263158,0.18421052631578946],[""2"",-0.2236842105263158,0.17982456140350878],[""2"",-0.17982456140350878,0.17982456140350878],[""2"",-0.1513157894736842,0.18311403508771928],[""2"",-0.15350877192982457,0.17214912280701755],[""2"",-0.12828947368421054,0.16776315789473684],[""2"",-0.1074561403508772,0.18421052631578946],[""3"",-0.17105263157894737,0.1875],[""2"",-0.041666666666666664,0.18969298245614036],[""3"",-0.14473684210526316,0.14692982456140352],[""3"",-0.08333333333333333,0.10964912280701754],[""2"",-0.08881578947368421,0.18421052631578946],[""2"",-0.19078947368421054,0.1118421052631579],[""2"",-0.20942982456140352,0.10416666666666667],[""1"",-0.14583333333333334,0.15679824561403508],[""1"",-0.1524122807017544,0.10087719298245613],[""1"",-0.14364035087719298,0.10635964912280702],[""1"",-0.14364035087719298,0.10526315789473684],[""5"",-0.05921052631578947,0.23574561403508773],[""5"",-0.16776315789473684,0.10197368421052631],[""5"",-0.17214912280701755,0.1074561403508772],[""2"",-0.23574561403508773,0.11074561403508772],[""2"",-0.24671052631578946,0.10964912280701754],[""5"",-0.2050438596491228,0.11074561403508772],[""5"",-0.27631578947368424,0.09868421052631579],[""5"",-0.2850877192982456,0.11513157894736842],[""2"",-0.2149122807017544,0.11293859649122807],[""2"",-0.19736842105263158,0.1074561403508772],[""5"",-0.26096491228070173,0.10526315789473684],[""5"",-0.24890350877192982,0.10307017543859649],[""4"",-0.20394736842105263,0.02850877192982456],[""4"",-0.22807017543859648,0.03289473684210526],[""5"",-0.31359649122807015,0.09758771929824561],[""4"",-0.24890350877192982,0.041666666666666664],[""4"",-0.26206140350877194,0.08552631578947369],[""4"",-0.26206140350877194,0.09320175438596491],[""4"",-0.25877192982456143,0.10307017543859649],[""6"",-0.12719298245614036,0.03837719298245614],[""6"",-0.21600877192982457,0.027412280701754384],[""6"",-0.22697368421052633,0.03508771929824561],[""6"",-0.22807017543859648,0.03508771929824561],[""6"",-0.2324561403508772,0.020833333333333332],[""6"",-0.23026315789473684,0.013157894736842105],[""6"",-0.2565789473684211,0.0021929824561403508],[""6"",-0.28618421052631576,0.01425438596491228],[""6"",-0.3168859649122807,-0.01644736842105263],[""6"",-0.3432017543859649,-0.02412280701754386],[""6"",-0.35526315789473684,0.07456140350877193],[""6"",-0.3399122807017544,0.046052631578947366],[""6"",-0.31140350877192985,0.013157894736842105],[""5"",-0.37390350877192985,0.1074561403508772],[""6"",-0.3168859649122807,0.07236842105263158],[""6"",-0.31469298245614036,0.10416666666666667]]",10,0.516,212.285,"[[""A"",""B""],[""D"",""B""],[""A"",""D""],[""A"",""E""],[""D"",""E""],[""D"",""C""],[""E"",""C""],[""D"",""F""],[""F"",""C""],[""F"",""E""]]",,,0.439692982,-0.35745614,1,0,0,[],0,[],0.525,15.052,0,0,0,0,1,materials/merge_sort/imgs/fruits/apple,,,8,jl06,001,2021-10-10_09h28.43.935,seq_teaching_exp_inverse,2021.2.3,Win32,29.97601918,,,,,,,,,,,,,,,,,,,,,,,,,,,,,,,,,,,,,,,,,,,,,,,,,,,,,,,,,,,,,,,,,,,,,,,,,,,,,,,,,,,,,,,,,,,,,,,,,,,,
,,,,,,,,,,,,,,,,,,,,,,,,,,,G,B,"G,B,F,E,C,A,D",0.438596491,-0.332236842,1,0,0,"[""6"",""2"",""4"",""7"",""5"",""3"",""1""]","[""'C'"",""'B'"",""'E'"",""'D'"",""'A'"",""'F'"",""'G'""]","[[""2"",-0.19736842105263158,0.30701754385964913],[""2"",-0.26864035087719296,0.13925438596491227],[""1"",-0.20614035087719298,0.21162280701754385],[""1"",-0.20394736842105263,0.14692982456140352],[""1"",-0.20285087719298245,0.14583333333333334],[""1"",-0.20285087719298245,0.14473684210526316],[""3"",-0.14912280701754385,0.25548245614035087],[""3"",-0.13706140350877194,0.21929824561403508],[""3"",-0.17763157894736842,0.05592105263157895],[""3"",-0.2138157894736842,0.06469298245614036],[""1"",-0.1611842105263158,0.1425438596491228],[""1"",-0.1524122807017544,0.1425438596491228],[""3"",-0.20285087719298245,0.10307017543859649],[""3"",-0.20285087719298245,0.14035087719298245],[""3"",-0.20942982456140352,0.14144736842105263],[""4"",-0.1162280701754386,0.09758771929824561],[""4"",-0.17434210526315788,0.03070175438596491],[""4"",-0.18311403508771928,0.03179824561403509],[""1"",-0.14802631578947367,0.14144736842105263],[""1"",-0.10416666666666667,0.14144736842105263],[""1"",-0.10197368421052631,0.14035087719298245],[""1"",-0.09649122807017543,0.14912280701754385],[""1"",-0.14035087719298245,0.13925438596491227],[""1"",-0.14364035087719298,0.14035087719298245],[""4"",-0.17763157894736842,0.03179824561403509],[""4"",-0.0800438596491228,0.14583333333333334],[""4"",-0.0800438596491228,0.14035087719298245],[""5"",-0.043859649122807015,0.2774122807017544],[""5"",-0.039473684210526314,0.05921052631578947],[""5"",-0.025219298245614034,0.09320175438596491],[""5"",-0.05701754385964912,0.06907894736842106],[""4"",-0.05043859649122807,0.14144736842105263],[""4"",-0.03179824561403509,0.14144736842105263],[""5"",-0.08333333333333333,0.13706140350877194],[""5"",-0.08881578947368421,0.13925438596491227],[""6"",-0.0010964912280701754,0.30153508771929827],[""6"",0.0021929824561403508,0.30701754385964913],[""6"",-0.11074561403508772,0.3026315789473684],[""6"",-0.11951754385964912,0.30372807017543857],[""6"",-0.12280701754385964,0.30372807017543857],[""3"",-0.18311403508771928,0.15570175438596492],[""6"",-0.17214912280701755,0.21820175438596492],[""2"",-0.25877192982456143,0.14583333333333334],[""2"",-0.30043859649122806,0.1524122807017544],[""6"",-0.20065789473684212,0.22587719298245615],[""6"",-0.22478070175438597,0.19188596491228072],[""6"",-0.23355263157894737,0.16337719298245615],[""6"",-0.23903508771929824,0.14144736842105263],[""6"",-0.23903508771929824,0.15021929824561403],[""6"",-0.24013157894736842,0.1524122807017544],[""7"",0.0625,0.2642543859649123],[""7"",0.06469298245614036,0.23684210526315788],[""7"",0.025219298245614034,0.2850877192982456],[""7"",-0.019736842105263157,0.28618421052631576],[""7"",-0.10087719298245613,0.24890350877192982],[""7"",-0.17763157894736842,0.31798245614035087],[""7"",-0.2817982456140351,0.2598684210526316],[""7"",-0.27960526315789475,0.2412280701754386],[""7"",-0.27960526315789475,0.20394736842105263],[""7"",-0.34868421052631576,0.1699561403508772],[""7"",-0.35526315789473684,0.15460526315789475],[""7"",-0.35526315789473684,0.15350877192982457]]",12,0.526,181.337,"[[""B"",""C""],[""B"",""E""],[""C"",""E""],[""E"",""D""],[""C"",""D""],[""C"",""A""],[""A"",""D""],[""F"",""A""],[""F"",""E""],[""F"",""B""],[""F"",""G""],[""B"",""G""]]",,,0.421052632,-0.356359649,1,0,0,[],0,[],0.528,7.638,0,1,1,1,1,materials/merge_sort/imgs/fruits/banana,,,12,jl06,001,2021-10-10_09h28.43.935,seq_teaching_exp_inverse,2021.2.3,Win32,29.97601918,,,,,,,,,,,,,,,,,,,,,,,,,,,,,,,,,,,,,,,,,,,,,,,,,,,,,,,,,,,,,,,,,,,,,,,,,,,,,,,,,,,,,,,,,,,,,,,,,,,,
,,,,,,,,,,,,,,,,,,,,,,,,,,,H,C,"C,H,D,F,E,A,B,G",0.577850877,-0.3125,1,0,0,"[""7"",""6"",""5"",""8"",""4"",""3"",""2"",""1""]","[""'B'"",""'A'"",""'E'"",""'G'"",""'F'"",""'D'"",""'H'"",""'C'""]","[[""2"",-0.1787280701754386,0.20614035087719298],[""2"",-0.18421052631578946,0.1875],[""1"",-0.125,0.16885964912280702],[""1"",-0.11951754385964912,0.19298245614035087],[""1"",-0.12719298245614036,0.19078947368421054],[""1"",-0.12609649122807018,0.1875],[""3"",-0.16557017543859648,0.3048245614035088],[""3"",-0.29714912280701755,0.08662280701754387],[""3"",-0.15570175438596492,0.05043859649122807],[""3"",-0.15021929824561403,0.0537280701754386],[""3"",-0.15679824561403508,0.047149122807017545],[""3"",-0.1206140350877193,0.0756578947368421],[""3"",-0.11074561403508772,0.08114035087719298],[""3"",-0.1524122807017544,0.11732456140350878],[""3"",-0.16228070175438597,0.10526315789473684],[""3"",-0.19078947368421054,0.08991228070175439],[""3"",-0.18640350877192982,0.10964912280701754],[""3"",-0.21052631578947367,0.15460526315789475],[""3"",-0.21929824561403508,0.1513157894736842],[""3"",-0.23355263157894737,0.17982456140350878],[""3"",-0.24561403508771928,0.18640350877192982],[""3"",-0.24561403508771928,0.18201754385964913],[""3"",-0.24561403508771928,0.18311403508771928],[""3"",-0.24451754385964913,0.18530701754385964],[""4"",-0.09210526315789473,0.3026315789473684],[""4"",-0.20285087719298245,0.3059210526315789],[""4"",-0.3157894736842105,0.2576754385964912],[""4"",-0.3059210526315789,0.03618421052631579],[""4"",-0.12938596491228072,0.07236842105263158],[""4"",-0.125,0.07346491228070176],[""4"",-0.125,0.08223684210526316],[""4"",-0.05921052631578947,0.18421052631578946],[""4"",-0.07236842105263158,0.18969298245614036],[""5"",-0.13267543859649122,0.30153508771929827],[""5"",-0.2565789473684211,0.28618421052631576],[""5"",-0.2774122807017544,0.27850877192982454],[""5"",-0.2817982456140351,0.08114035087719298],[""5"",-0.29714912280701755,0.1600877192982456],[""5"",-0.30153508771929827,0.19078947368421054],[""5"",-0.3026315789473684,0.19188596491228072],[""6"",0.03289473684210526,0.11403508771929824],[""6"",0.02850877192982456,0.049342105263157895],[""6"",-0.09429824561403509,0.02631578947368421],[""6"",-0.18859649122807018,0.03179824561403509],[""6"",-0.25877192982456143,0.05592105263157895],[""6"",-0.26096491228070173,0.05701754385964912],[""6"",-0.3399122807017544,0.14473684210526316],[""6"",-0.34649122807017546,0.18859649122807018],[""6"",-0.3574561403508772,0.17763157894736842],[""7"",-0.03289473684210526,0.05263157894736842],[""7"",-0.09649122807017543,0.049342105263157895],[""6"",-0.35855263157894735,0.17653508771929824],[""6"",-0.3508771929824561,0.18969298245614036],[""7"",-0.19407894736842105,0.05043859649122807],[""7"",-0.375,0.10855263157894737],[""7"",-0.36403508771929827,0.10526315789473684],[""4"",0.01425438596491228,0.19188596491228072],[""1"",-0.044956140350877194,0.18530701754385964],[""2"",-0.10526315789473684,0.18311403508771928],[""2"",-0.10197368421052631,0.18311403508771928],[""3"",-0.22916666666666666,0.18969298245614036],[""3"",-0.16666666666666666,0.18969298245614036],[""5"",-0.22149122807017543,0.18530701754385964],[""6"",-0.2817982456140351,0.1875],[""7"",-0.3432017543859649,0.16885964912280702],[""7"",-0.32785087719298245,0.1787280701754386],[""8"",0.10197368421052631,0.2236842105263158],[""8"",0.10855263157894737,0.20723684210526316],[""8"",0.06798245614035088,0.06798245614035088],[""8"",0.07456140350877193,0.06030701754385965],[""8"",-0.044956140350877194,0.023026315789473683],[""8"",-0.044956140350877194,0.017543859649122806],[""8"",-0.044956140350877194,0.019736842105263157],[""8"",0.06798245614035088,0.12390350877192982],[""8"",0.07236842105263158,0.14802631578947367],[""8"",0.07017543859649122,0.14583333333333334],[""8"",0.010964912280701754,0.08442982456140351],[""8"",-0.16885964912280702,0.041666666666666664],[""8"",-0.3651315789473684,0.14364035087719298],[""8"",-0.38048245614035087,0.18969298245614036]]",18,0.524,213.59,"[[""B"",""A""],[""E"",""A""],[""G"",""A""],[""G"",""B""],[""G"",""F""],[""A"",""F""],[""E"",""F""],[""F"",""D""],[""A"",""D""],[""G"",""D""],[""B"",""D""],[""E"",""D""],[""F"",""D""],[""D"",""H""],[""C"",""H""],[""C"",""D""],[""C"",""G""],[""C"",""H""]]",,,0.439692982,-0.353070175,1,0,0,[],0,[],0.514,2.246,0,2,2,2,1,materials/merge_sort/imgs/fruits/apple,,,13,jl06,001,2021-10-10_09h28.43.935,seq_teaching_exp_inverse,2021.2.3,Win32,29.97601918,,,,,,,,,,,,,,,,,,,,,,,,,,,,,,,,,,,,,,,,,,,,,,,,,,,,,,,,,,,,,,,,,,,,,,,,,,,,,,,,,,,,,,,,,,,,,,,,,,,,
,,,,,,,,,,,,,,,,,,,,,,,,,,,C,,"D,I,J,E,A,C,B,G,F,H",0.551535088,-0.333333333,1,0,0,"[""8"",""6"",""4"",""3"",""2"",""10"",""9"",""7"",""1"",""5""]","[""'G'"",""'C'"",""'E'"",""'J'"",""'I'"",""'H'"",""'F'"",""'B'"",""'D'"",""'A'""]","[[""1"",-0.2565789473684211,0.29605263157894735],[""1"",-0.18969298245614036,0.2050438596491228],[""2"",-0.25,0.23026315789473684],[""2"",-0.2730263157894737,0.1206140350877193],[""1"",-0.1787280701754386,0.2138157894736842],[""2"",-0.2708333333333333,0.10526315789473684],[""1"",-0.19188596491228072,0.09539473684210527],[""1"",-0.19298245614035087,0.10197368421052631],[""3"",-0.16666666666666666,0.29276315789473684],[""3"",-0.32785087719298245,0.125],[""1"",-0.16776315789473684,0.11293859649122807],[""3"",-0.3223684210526316,0.09649122807017543],[""1"",-0.13815789473684212,0.11951754385964912],[""2"",-0.1875,0.12171052631578948],[""1"",-0.03837719298245614,0.12171052631578948],[""2"",-0.10855263157894737,0.1162280701754386],[""2"",-0.09429824561403509,0.12171052631578948],[""1"",0.1206140350877193,0.1337719298245614],[""1"",0.17214912280701755,0.13706140350877194],[""2"",-0.03837719298245614,0.13706140350877194],[""2"",-0.008771929824561403,0.1206140350877193],[""2"",0.09868421052631579,0.13815789473684212],[""2"",0.10307017543859649,0.14035087719298245],[""3"",-0.3059210526315789,0.09429824561403509],[""3"",-0.2324561403508772,0.06030701754385965],[""3"",-0.12828947368421054,0.08991228070175439],[""3"",0.03508771929824561,0.15021929824561403],[""3"",0.029605263157894735,0.14144736842105263],[""4"",-0.11951754385964912,0.26535087719298245],[""4"",-0.08333333333333333,0.025219298245614034],[""4"",0.06578947368421052,0.04057017543859649],[""4"",0.07236842105263158,0.041666666666666664],[""4"",-0.01644736842105263,0.06798245614035088],[""4"",-0.039473684210526314,0.13706140350877194],[""4"",-0.03837719298245614,0.13815789473684212],[""4"",-0.044956140350877194,0.14692982456140352],[""5"",-0.06578947368421052,0.2741228070175439],[""5"",-0.13706140350877194,0.13596491228070176],[""5"",-0.12171052631578948,0.1524122807017544],[""6"",-0.06798245614035088,0.2905701754385965],[""6"",-0.18859649122807018,0.19188596491228072],[""6"",-0.18530701754385964,0.18311403508771928],[""6"",-0.19407894736842105,0.15899122807017543],[""6"",-0.20394736842105263,0.09868421052631579],[""6"",-0.1699561403508772,0.03399122807017544],[""6"",-0.11732456140350878,0.03070175438596491],[""6"",-0.09210526315789473,0.049342105263157895],[""6"",-0.09320175438596491,0.049342105263157895],[""6"",-0.09758771929824561,0.047149122807017545],[""6"",0.18092105263157895,0.06140350877192982],[""6"",0.24013157894736842,0.12828947368421054],[""7"",0.09100877192982457,0.06578947368421052],[""7"",0.18530701754385964,0.03399122807017544],[""7"",0.1875,0.03070175438596491],[""6"",0.2949561403508772,0.13815789473684212],[""6"",0.29385964912280704,0.13157894736842105],[""7"",0.22149122807017543,0.09320175438596491],[""7"",0.23903508771929824,0.12609649122807018],[""7"",0.23574561403508773,0.13267543859649122],[""8"",0.07346491228070176,0.29714912280701755],[""8"",-0.0010964912280701754,0.2894736842105263],[""8"",-0.16447368421052633,0.03618421052631579],[""8"",-0.11293859649122807,0.023026315789473683],[""8"",-0.11293859649122807,0.02412280701754386],[""8"",-0.06030701754385965,0.020833333333333332],[""8"",0.11403508771929824,0.046052631578947366],[""8"",0.11842105263157894,0.046052631578947366],[""8"",0.12719298245614036,0.0625],[""8"",0.13925438596491227,0.09649122807017543],[""8"",0.12828947368421054,0.09100877192982457],[""8"",0.12280701754385964,0.09210526315789473],[""8"",0.12171052631578948,0.09429824561403509],[""9"",0.10855263157894737,0.2993421052631579],[""9"",-0.05701754385964912,0.2905701754385965],[""9"",-0.10855263157894737,0.2894736842105263],[""9"",-0.10526315789473684,0.30153508771929827],[""9"",-0.22149122807017543,0.18530701754385964],[""9"",-0.0010964912280701754,0.03070175438596491],[""9"",0.047149122807017545,0.04824561403508772],[""9"",0.043859649122807015,0.041666666666666664],[""9"",0.03508771929824561,0.029605263157894735],[""9"",0.03728070175438596,0.03179824561403509],[""9"",-0.006578947368421052,0.029605263157894735],[""9"",-0.02412280701754386,0.039473684210526314],[""9"",-0.005482456140350877,0.02850877192982456],[""9"",-0.10197368421052631,0.02631578947368421],[""9"",-0.20833333333333334,0.04276315789473684],[""9"",-0.1787280701754386,0.16557017543859648],[""9"",-0.18969298245614036,0.15679824561403508],[""10"",0.21600877192982457,0.3026315789473684],[""10"",0.1875,0.30701754385964913],[""10"",-0.11403508771929824,0.2774122807017544],[""10"",-0.2916666666666667,0.25877192982456143],[""10"",-0.2916666666666667,0.2565789473684211],[""10"",-0.2993421052631579,0.1787280701754386],[""10"",-0.24013157894736842,0.01864035087719298],[""10"",-0.07456140350877193,0.023026315789473683],[""10"",-0.05701754385964912,0.019736842105263157],[""10"",0.04276315789473684,0.03508771929824561],[""10"",0.05263157894736842,0.06578947368421052]]",19,0.51,230.188,"[[""G"",""C""],[""C"",""E""],[""J"",""E""],[""J"",""I""],[""I"",""H""],[""J"",""H""],[""G"",""H""],[""I"",""F""],[""H"",""F""],[""G"",""F""],[""I"",""B""],[""H"",""B""],[""C"",""B""],[""G"",""B""],[""D"",""C""],[""D"",""E""],[""D"",""I""],[""D"",""A""],[""B"",""A""]]",,,0.418859649,-0.353070175,1,0,0,[],0,[],0.517,4.234,0,3,3,3,1,materials/merge_sort/imgs/fruits/melon,,,21,jl06,001,2021-10-10_09h28.43.935,seq_teaching_exp_inverse,2021.2.3,Win32,29.97601918,,,,,,,,,,,,,,,,,,,,,,,,,,,,,,,,,,,,,,,,,,,,,,,,,,,,,,,,,,,,,,,,,,,,,,,,,,,,,,,,,,,,,,,,,,,,,,,,,,,,
,,,,,,,,,,,,,,,,,,,,,,,,,,,,,,,,,,,,,,,,,,,,,,,,,,,,,,,,,,,,,,,jl06,001,2021-10-10_09h28.43.935,seq_teaching_exp_inverse,2021.2.3,Win32,29.97601918,-0.020833333,-0.415570175,1,0,0,19.092,B,A,0.417763158,-0.410087719,1,0,0,merge_train_btn_2,0.507,"[0,1]",1,"[""'A'"",""'B'""]","[""4"",""2""]","[[""A"",""B""]]","[""merge_train_btn_2""]",40.182,0.289473684,-0.412280702,1,0,0,0.514,21.038,0,0,0,0,1,materials/merge_sort/imgs/merge_train/merge_train_ex_1.png,materials/merge_sort/imgs/merge_train/merge_train_ex_1_1_correct.png,materials/merge_sort/imgs/merge_train/merge_train_ex_1_1_wrong.png,,,,,,,,,,,,,,,,,,,,,,,,,,,,,,,,,,,,,,,,,,,,,,,,,,,,,,,,,,,,,,,
,,,,,,,,,,,,,,,,,,,,,,,,,,,,,,,,,,,,,,,,,,,,,,,,,,,,,,,,,,,,,,,jl06,001,2021-10-10_09h28.43.935,seq_teaching_exp_inverse,2021.2.3,Win32,29.97601918,,,,,,,B,A,0.447368421,-0.236842105,1,0,0,merge_train_btn_1,0.522,"[1,0]",1,"[""'A'"",""'B'"",""'D'"",""'C'""]","[""1"",""4"",""2"",""3""]","[[""A"",""B""]]","[""merge_train_btn_1""]",22.423,0.326754386,-0.429824561,1,0,0,0.515,22.212,0,1,1,1,1,materials/merge_sort/imgs/merge_train/merge_train_ex_2.png,materials/merge_sort/imgs/merge_train/merge_train_ex_2_1_correct.png,materials/merge_sort/imgs/merge_train/merge_train_ex_2_1_wrong.png,,,,,,,,,,,,,,,,,,,,,,,,,,,,,,,,,,,,,,,,,,,,,,,,,,,,,,,,,,,,,,,
,,,,,,,,,,,,,,,,,,,,,,,,,,,,,,,,,,,,,,,,,,,,,,,,,,,,,,,,,,,,,,,jl06,001,2021-10-10_09h28.43.935,seq_teaching_exp_inverse,2021.2.3,Win32,29.97601918,,,,,,,D,C,0.531798246,-0.380482456,1,0,0,merge_train_btn_2,0.528,"[1,0]",3,"[""'A'"",""'B'"",""'D'"",""'C'""]","[""1"",""4"",""2"",""3""]","[[""D"",""B""],[""C"",""B""],[""C"",""D""]]","[""merge_train_btn_2""]",34.241,0.315789474,-0.414473684,1,0,0,0.507,15.425,0,2,2,2,1,materials/merge_sort/imgs/merge_train/merge_train_ex_2.png,materials/merge_sort/imgs/merge_train/merge_train_ex_2_2_correct.png,materials/merge_sort/imgs/merge_train/merge_train_ex_2_2_wrong.png,,,,,,,,,,,,,,,,,,,,,,,,,,,,,,,,,,,,,,,,,,,,,,,,,,,,,,,,,,,,,,,
,,,,,,,,,,,,,,,,,,,,,,,,,,,,,,,,,,,,,,,,,,,,,,,,,,,,,,,,,,,,,,,jl06,001,2021-10-10_09h28.43.935,seq_teaching_exp_inverse,2021.2.3,Win32,29.97601918,,,,,,,G,E,0.468201754,-0.25,1,0,0,merge_train_btn_1,0.512,"[1,0]",2,"[""'C'"",""'D'"",""'B'"",""'A'"",""'G'"",""'E'"",""'F'""]","[""1"",""2"",""5"",""7"",""3"",""4"",""6""]","[[""G"",""B""],[""E"",""G""]]","[""merge_train_btn_1""]",25.378,0.281798246,-0.387061404,1,0,0,0.524,2.831,0,3,3,3,1,materials/merge_sort/imgs/merge_train/merge_train_ex_5.png,materials/merge_sort/imgs/merge_train/merge_train_ex_5_1_correct.png,materials/merge_sort/imgs/merge_train/merge_train_ex_5_1_wrong.png,,,,,,,,,,,,,,,,,,,,,,,,,,,,,,,,,,,,,,,,,,,,,,,,,,,,,,,,,,,,,,,
,,,,,,,,,,,,,,,,,,,,,,,,,,,,,,,,,,,,,,,,,,,,,,,,,,,,,,,,,,,,,,,jl06,001,2021-10-10_09h28.43.935,seq_teaching_exp_inverse,2021.2.3,Win32,29.97601918,,,,,,,B,F,0.467105263,-0.406798246,1,0,0,merge_train_btn_2,0.501,"[0,1]",3,"[""'C'"",""'D'"",""'B'"",""'A'"",""'G'"",""'E'"",""'F'""]","[""1"",""2"",""5"",""7"",""3"",""4"",""6""]","[[""E"",""F""],[""E"",""B""],[""F"",""B""]]","[""merge_train_btn_2""]",24.558,0.275219298,-0.398026316,1,0,0,0.518,2.421,0,4,4,4,1,materials/merge_sort/imgs/merge_train/merge_train_ex_5.png,materials/merge_sort/imgs/merge_train/merge_train_ex_5_2_correct.png,materials/merge_sort/imgs/merge_train/merge_train_ex_5_2_wrong.png,,,,,,,,,,,,,,,,,,,,,,,,,,,,,,,,,,,,,,,,,,,,,,,,,,,,,,,,,,,,,,,
,,,,,,,,,,,,,,,,,,,,,,,,,,,,,,,,,,,,,,,,,,,,,,,,,,,,,,,,,,,,,,,jl06,001,2021-10-10_09h28.43.935,seq_teaching_exp_inverse,2021.2.3,Win32,29.97601918,,,,,,,F,B,0.449561404,-0.400219298,1,0,0,merge_train_btn_2,0.516,"[0,1]",2,"[""'C'"",""'D'"",""'B'"",""'A'"",""'G'"",""'E'"",""'F'""]","[""1"",""2"",""5"",""7"",""3"",""4"",""6""]","[[""A"",""F""],[""B"",""F""]]","[""merge_train_btn_2""]",31.053,0.309210526,-0.401315789,1,0,0,0.529,2.131,0,5,5,5,1,materials/merge_sort/imgs/merge_train/merge_train_ex_5.png,materials/merge_sort/imgs/merge_train/merge_train_ex_5_3_correct.png,materials/merge_sort/imgs/merge_train/merge_train_ex_5_3_wrong.png,,,,,,,,,,,,,,,,,,,,,,,,,,,,,,,,,,,,,,,,,,,,,,,,,,,,,,,,,,,,,,,
,,,,,,,,,,,,,,,,,,,,,,,,,,,,,,,,,,,,,,,,,,,,,,,,,,,,,,,,,,,,,,,jl06,001,2021-10-10_09h28.43.935,seq_teaching_exp_inverse,2021.2.3,Win32,29.97601918,,,,,,,,,,,,,,,,,,,,,,,,,,,,,,,,,,,materials/merge_sort/imgs/merge_test/merge_test_ex_1.png,,,-0.055921053,-0.426535088,1,0,0,10.136,E,D,"C,A,B,D,E",0.470394737,-0.360745614,1,0,0,"[""1"",""2"",""5"",""3"",""4""]","[""'C'"",""'A'"",""'B'"",""'D'"",""'E'""]",5,"[[""B"",""D""],[""B"",""E""],[""A"",""D""],[""A"",""C""],[""D"",""E""]]",0.509,66.844,0,0,0,0,1,,,,,,,,,,,,,,,,,,,,,,,,,,,,,,,,,,,,,,
,,,,,,,,,,,,,,,,,,,,,,,,,,,,,,,,,,,,,,,,,,,,,,,,,,,,,,,,,,,,,,,jl06,001,2021-10-10_09h28.43.935,seq_teaching_exp_inverse,2021.2.3,Win32,29.97601918,,,,,,,,,,,,,,,,,,,,,,,,,,,,,,,,,,,materials/merge_sort/imgs/merge_test/merge_test_ex_2.png,,,,,,,,,D,C,"E,D,C,A,B",0.452850877,-0.339912281,1,0,0,"[""3"",""4"",""5"",""1"",""2""]","[""'B'"",""'A'"",""'C'"",""'D'"",""'E'""]",4,"[[""D"",""D""],[""B"",""D""],[""E"",""D""],[""C"",""D""]]",0.52,58.68,0,1,1,1,1,,,,,,,,,,,,,,,,,,,,,,,,,,,,,,,,,,,,,,
,,,,,,,,,,,,,,,,,,,,,,,,,,,,,,,,,,,,,,,,,,,,,,,,,,,,,,,,,,,,,,,jl06,001,2021-10-10_09h28.43.935,seq_teaching_exp_inverse,2021.2.3,Win32,29.97601918,,,,,,,,,,,,,,,,,,,,,,,,,,,,,,,,,,,materials/merge_sort/imgs/merge_test/merge_test_ex_3.png,,,,,,,,,B,A,"F,D,E,A,C,B",0.441885965,-0.345394737,1,0,0,"[""3"",""5"",""6"",""1"",""2"",""4""]","[""'A'"",""'C'"",""'B'"",""'F'"",""'D'"",""'E'""]",3,"[[""F"",""B""],[""E"",""B""],[""A"",""B""]]",0.525,30.42,0,2,2,2,1,,,,,,,,,,,,,,,,,,,,,,,,,,,,,,,,,,,,,,
,,,,,,,,,,,,,,,,,,,,,,,,,,,,,,,,,,,,,,,,,,,,,,,,,,,,,,,,,,,,,,,jl06,001,2021-10-10_09h28.43.935,seq_teaching_exp_inverse,2021.2.3,Win32,29.97601918,,,,,,,,,,,,,,,,,,,,,,,,,,,,,,,,,,,materials/merge_sort/imgs/merge_test/merge_test_ex_4.png,,,,,,,,,A,D,"E,G,F,D,B,C,A",0.453947368,-0.389254386,1,0,0,"[""2"",""3"",""5"",""7"",""1"",""4"",""6""]","[""'D'"",""'B'"",""'C'"",""'A'"",""'E'"",""'G'"",""'F'""]",4,"[[""A"",""E""],[""A"",""F""],[""G"",""F""],[""D"",""A""]]",0.506,32.73,0,3,3,3,1,,,,,,,,,,,,,,,,,,,,,,,,,,,,,,,,,,,,,,
,,,,,,,,,,,,,,,,,,,,,,,,,,,,,,,,,,,,,,,,,,,,,,,,,,,,,,,,,,,,,,,jl06,001,2021-10-10_09h28.43.935,seq_teaching_exp_inverse,2021.2.3,Win32,29.97601918,,,,,,,,,,,,,,,,,,,,,,,,,,,,,,,,,,,materials/merge_sort/imgs/merge_test/merge_test_ex_5.png,,,,,,,,,G,C,"C,A,B,D,F",-0.466008772,-0.264254386,0,0,0,"[""1"",""4"",""5"",""6"",""2"",""3"",""7""]","[""'C'"",""'A'"",""'B'"",""'D'"",""'E'"",""'G'"",""'F'""]",12,"[[""D"",""E""],[""D"",""F""],[""D"",""E""],[""C"",""A""],[""C"",""G""],[""C"",""B""],[""C"",""D""],[""D"",""F""],[""D"",""G""],[""B"",""G""],[""A"",""G""],[""C"",""G""]]",0.526,90.006,0,4,4,4,1,,,,,,,,,,,,,,,,,,,,,,,,,,,,,,,,,,,,,,
,,,,,,,,,,,,,,,,,,,,,,,,,,,,,,,,,,,,,,,,,,,,,,,,,,,,,,,,,,,materials/merge_sort/imgs/fruits/melon,,,,jl06,001,2021-10-10_09h28.43.935,seq_teaching_exp_inverse,2021.2.3,Win32,29.97601918,,,,,,,,,,,,,,,,,,,,,,,,,,,,,,,,,,,,,,,,,,,,,,,,,,,,,,,,,,,,,,,-0.088815789,-0.414473684,1,0,0,6.414,D,F,"D,F,B,A,C,E",0.422149123,-0.339912281,1,0,0,"[""6"",""3"",""5"",""4"",""2"",""1""]","[""'E'"",""'B'"",""'C'"",""'A'"",""'F'"",""'D'""]","[[""2"",-0.21600877192982457,0.1787280701754386],[""2"",-0.20723684210526316,0.13706140350877194],[""1"",-0.26096491228070173,0.30372807017543857],[""1"",-0.14144736842105263,0.13925438596491227],[""1"",-0.14035087719298245,0.12609649122807018],[""1"",-0.14144736842105263,0.12828947368421054],[""3"",-0.15789473684210525,0.3125],[""3"",-0.14473684210526316,0.005482456140350877],[""3"",-0.20394736842105263,0.03070175438596491],[""3"",-0.1962719298245614,0.02412280701754386],[""3"",-0.21162280701754385,0.02412280701754386],[""1"",-0.05701754385964912,0.13925438596491227],[""3"",-0.15021929824561403,0.06798245614035088],[""3"",-0.13706140350877194,0.13267543859649122],[""3"",-0.13925438596491227,0.13486842105263158],[""4"",-0.10855263157894737,0.0712719298245614],[""4"",-0.12609649122807018,0.020833333333333332],[""4"",-0.12828947368421054,0.020833333333333332],[""4"",-0.23903508771929824,0.049342105263157895],[""4"",-0.2642543859649123,0.10307017543859649],[""3"",-0.12938596491228072,0.1337719298245614],[""1"",0.023026315789473683,0.14692982456140352],[""1"",0.029605263157894735,0.1425438596491228],[""3"",-0.11732456140350878,0.13486842105263158],[""3"",-0.03728070175438596,0.1524122807017544],[""3"",-0.04276315789473684,0.14912280701754385],[""4"",-0.12719298245614036,0.13815789473684212],[""4"",-0.12938596491228072,0.14144736842105263],[""5"",-0.16557017543859648,0.01644736842105263],[""5"",-0.19188596491228072,0.017543859649122806],[""5"",-0.21820175438596492,0.044956140350877194],[""5"",-0.2708333333333333,0.1425438596491228],[""6"",-0.10087719298245613,0.2543859649122807],[""6"",-0.1118421052631579,0.23135964912280702],[""6"",-0.21600877192982457,0.020833333333333332],[""6"",-0.25548245614035087,0.03618421052631579],[""6"",-0.3344298245614035,0.13596491228070176],[""6"",-0.3344298245614035,0.13815789473684212]]","[[""B"",""E""],[""C"",""E""],[""C"",""B""],[""C"",""A""],[""B"",""A""],[""F"",""A""],[""F"",""B""],[""F"",""D""]]",8,0.502,111.054,0,0,0,0,1,,,,,,,,,,,,
,,,,,,,,,,,,,,,,,,,,,,,,,,,,,,,,,,,,,,,,,,,,,,,,,,,,,,,,,,,materials/merge_sort/imgs/fruits/banana,,,,jl06,001,2021-10-10_09h28.43.935,seq_teaching_exp_inverse,2021.2.3,Win32,29.97601918,,,,,,,,,,,,,,,,,,,,,,,,,,,,,,,,,,,,,,,,,,,,,,,,,,,,,,,,,,,,,,,,,,,,,E,B,"E,B,F,A,C,D",0.470394737,-0.322368421,1,0,0,"[""4"",""6"",""5"",""2"",""3"",""1""]","[""'A'"",""'D'"",""'C'"",""'B'"",""'F'"",""'E'""]","[[""1"",-0.23355263157894737,0.09758771929824561],[""1"",-0.23355263157894737,0.09978070175438597],[""2"",-0.20614035087719298,0.31030701754385964],[""2"",-0.16776315789473684,0.10855263157894737],[""2"",-0.16776315789473684,0.09649122807017543],[""3"",-0.18969298245614036,0.008771929824561403],[""3"",-0.20833333333333334,0.010964912280701754],[""2"",-0.08662280701754387,0.09210526315789473],[""2"",-0.0756578947368421,0.09649122807017543],[""3"",-0.1787280701754386,0.02412280701754386],[""3"",-0.1513157894736842,0.09320175438596491],[""3"",-0.15350877192982457,0.09100877192982457],[""4"",-0.10197368421052631,0.1875],[""4"",-0.16337719298245615,0.2138157894736842],[""4"",-0.20723684210526316,0.20394736842105263],[""4"",-0.24013157894736842,0.20394736842105263],[""4"",-0.2916666666666667,0.10964912280701754],[""4"",-0.2982456140350877,0.09539473684210527],[""5"",-0.20285087719298245,0.19517543859649122],[""1"",-0.24013157894736842,0.09100877192982457],[""5"",-0.20723684210526316,0.18530701754385964],[""1"",-0.22149122807017543,0.11293859649122807],[""1"",-0.22039473684210525,0.09100877192982457],[""5"",-0.2412280701754386,0.17214912280701755],[""5"",-0.26206140350877194,0.09429824561403509],[""5"",-0.26644736842105265,0.08771929824561403],[""6"",-0.0043859649122807015,0.2993421052631579],[""6"",0.007675438596491228,0.29605263157894735],[""6"",-0.041666666666666664,0.29605263157894735],[""6"",-0.18640350877192982,0.2807017543859649],[""6"",-0.26535087719298245,0.17543859649122806],[""6"",-0.27631578947368424,0.1425438596491228],[""6"",-0.2730263157894737,0.1425438596491228],[""6"",-0.3355263157894737,0.13486842105263158],[""6"",-0.35526315789473684,0.09210526315789473]]","[[""D"",""A""],[""D"",""C""],[""A"",""C""],[""B"",""C""],[""B"",""A""],[""B"",""F""],[""A"",""F""],[""F"",""E""],[""B"",""E""]]",9,0.524,89.868,0,1,1,1,1,,,,,,,,,,,,
,,,,,,,,,,,,,,,,,,,,,,,,,,,,,,,,,,,,,,,,,,,,,,,,,,,,,,,,,,,materials/merge_sort/imgs/fruits/apple,,,,jl06,001,2021-10-10_09h28.43.935,seq_teaching_exp_inverse,2021.2.3,Win32,29.97601918,,,,,,,,,,,,,,,,,,,,,,,,,,,,,,,,,,,,,,,,,,,,,,,,,,,,,,,,,,,,,,,,,,,,,G,C,"G,C,E,A,F,D,B",0.490131579,-0.353070175,1,0,0,"[""7"",""5"",""3"",""6"",""1"",""4"",""2""]","[""'B'"",""'F'"",""'E'"",""'D'"",""'G'"",""'A'"",""'C'""]","[[""2"",-0.2050438596491228,0.20614035087719298],[""2"",-0.22807017543859648,0.09539473684210527],[""1"",-0.17214912280701755,0.10964912280701754],[""1"",-0.1699561403508772,0.09429824561403509],[""3"",-0.2598684210526316,0.20614035087719298],[""3"",-0.2883771929824561,0.16337719298245615],[""3"",-0.2675438596491228,0.12171052631578948],[""3"",-0.28618421052631576,0.09758771929824561],[""4"",-0.07236842105263158,0.09978070175438597],[""4"",-0.10526315789473684,0.003289473684210526],[""4"",-0.2138157894736842,0.0010964912280701754],[""4"",-0.24561403508771928,-0.0010964912280701754],[""4"",-0.25219298245614036,0.006578947368421052],[""4"",-0.2324561403508772,0.019736842105263157],[""4"",-0.20175438596491227,0.049342105263157895],[""4"",-0.20065789473684212,0.0537280701754386],[""5"",-0.19846491228070176,0.22697368421052633],[""5"",-0.01864035087719298,0.05482456140350877],[""5"",-0.19078947368421054,-0.007675438596491228],[""5"",-0.26535087719298245,-0.0021929824561403508],[""5"",-0.3366228070175439,0.05482456140350877],[""5"",-0.3366228070175439,0.09320175438596491],[""6"",-0.027412280701754384,0.10635964912280702],[""6"",-0.02850877192982456,0.10416666666666667],[""6"",-0.04057017543859649,0.0668859649122807],[""6"",-0.23684210526315788,0.003289473684210526],[""6"",-0.2543859649122807,0.04057017543859649],[""6"",-0.2543859649122807,0.044956140350877194],[""6"",-0.2565789473684211,0.027412280701754384],[""6"",-0.24780701754385964,-0.003289473684210526],[""6"",-0.26096491228070173,0.05043859649122807],[""6"",-0.26096491228070173,0.05263157894736842],[""7"",0.025219298245614034,0.18092105263157895],[""7"",-0.039473684210526314,0.0581140350877193],[""7"",-0.08771929824561403,0.025219298245614034],[""7"",-0.24232456140350878,-0.019736842105263157],[""7"",-0.2916666666666667,-0.010964912280701754],[""7"",-0.3059210526315789,-0.01206140350877193],[""7"",-0.30701754385964913,-0.008771929824561403],[""7"",-0.29276315789473684,0.0021929824561403508],[""7"",-0.33771929824561403,-0.01864035087719298],[""7"",-0.3442982456140351,-0.006578947368421052],[""7"",-0.3125,0.039473684210526314],[""7"",-0.31140350877192985,0.046052631578947366]]","[[""F"",""B""],[""E"",""B""],[""E"",""F""],[""D"",""E""],[""D"",""F""],[""D"",""B""],[""D"",""G""],[""E"",""G""],[""A"",""G""],[""A"",""E""],[""A"",""F""],[""C"",""A""],[""C"",""E""],[""C"",""G""]]",14,0.513,132.389,0,2,2,2,1,,,,,,,,,,,,
,,,,,,,,,,,,,,,,,,,,,,,,,,,,,,,,,,,,,,,,,,,,,,,,,,,,,,,,,,,materials/merge_sort/imgs/fruits/banana,,,,jl06,001,2021-10-10_09h28.43.935,seq_teaching_exp_inverse,2021.2.3,Win32,29.97601918,,,,,,,,,,,,,,,,,,,,,,,,,,,,,,,,,,,,,,,,,,,,,,,,,,,,,,,,,,,,,,,,,,,,,F,G,"F,G,C,E,B,A,D",0.447368421,-0.356359649,1,0,0,"[""4"",""7"",""2"",""6"",""3"",""5"",""1""]","[""'E'"",""'D'"",""'G'"",""'A'"",""'C'"",""'B'"",""'F'""]","[[""2"",-0.16666666666666666,0.13596491228070176],[""1"",-0.25109649122807015,0.15789473684210525],[""1"",-0.23903508771929824,0.14144736842105263],[""1"",-0.24013157894736842,0.14144736842105263],[""3"",-0.20065789473684212,0.2774122807017544],[""3"",-0.29385964912280704,0.16776315789473684],[""3"",-0.2993421052631579,0.1425438596491228],[""4"",-0.08771929824561403,0.26644736842105265],[""4"",-0.18201754385964913,0.03618421052631579],[""4"",-0.27960526315789475,0.0537280701754386],[""4"",-0.28289473684210525,0.05482456140350877],[""4"",-0.2149122807017544,0.08223684210526316],[""4"",-0.2138157894736842,0.09429824561403509],[""5"",-0.0712719298245614,0.27960526315789475],[""5"",-0.16557017543859648,0.23464912280701755],[""5"",-0.11842105263157894,0.2894736842105263],[""5"",-0.12390350877192982,0.31030701754385964],[""5"",-0.14473684210526316,0.31140350877192985],[""5"",-0.11951754385964912,0.3223684210526316],[""5"",-0.021929824561403508,0.17763157894736842],[""5"",-0.03289473684210526,0.11074561403508772],[""5"",-0.025219298245614034,0.1074561403508772],[""5"",-0.08223684210526316,0.046052631578947366],[""5"",-0.0756578947368421,0.05263157894736842],[""5"",-0.25548245614035087,0.01206140350877193],[""5"",-0.27850877192982454,0.09429824561403509],[""5"",-0.27850877192982454,0.08552631578947369],[""6"",-0.01425438596491228,0.22478070175438597],[""2"",-0.11513157894736842,0.14583333333333334],[""2"",-0.10526315789473684,0.13596491228070176],[""4"",-0.1524122807017544,0.13267543859649122],[""4"",-0.15021929824561403,0.13815789473684212],[""6"",-0.09429824561403509,0.2138157894736842],[""6"",-0.19517543859649122,0.14364035087719298],[""6"",-0.19736842105263158,0.13706140350877194],[""7"",0.013157894736842105,0.3081140350877193],[""7"",-0.09868421052631579,0.2708333333333333],[""7"",-0.30701754385964913,0.20723684210526316],[""7"",-0.35635964912280704,0.13596491228070176],[""7"",-0.3574561403508772,0.13706140350877194]]","[[""D"",""E""],[""G"",""E""],[""A"",""G""],[""A"",""E""],[""A"",""D""],[""A"",""C""],[""E"",""C""],[""E"",""G""],[""G"",""C""],[""E"",""C""],[""B"",""C""],[""B"",""E""],[""B"",""A""],[""B"",""F""],[""E"",""F""],[""C"",""F""],[""G"",""F""]]",17,0.525,126.665,0,3,3,3,1,,,,,,,,,,,,
,,,,,,,,,,,,,,,,,,,,,,,,,,,,,,,,,,,,,,,,,,,,,,,,,,,,,,,,,,,materials/merge_sort/imgs/fruits/melon,,,,jl06,001,2021-10-10_09h28.43.935,seq_teaching_exp_inverse,2021.2.3,Win32,29.97601918,,,,,,,,,,,,,,,,,,,,,,,,,,,,,,,,,,,,,,,,,,,,,,,,,,,,,,,,,,,,,,,,,,,,,F,G,"G,F,D,B,E,C,H,A",0.447368421,-0.346491228,1,0,0,"[""8"",""7"",""6"",""5"",""4"",""3"",""2"",""1""]","[""'A'"",""'H'"",""'C'"",""'E'"",""'B'"",""'D'"",""'F'"",""'G'""]","[[""2"",-0.23135964912280702,0.13925438596491227],[""1"",-0.1699561403508772,0.15021929824561403],[""1"",-0.16666666666666666,0.1337719298245614],[""3"",-0.09758771929824561,0.16447368421052633],[""3"",-0.18969298245614036,0.03289473684210526],[""3"",-0.20285087719298245,0.04276315789473684],[""3"",-0.28618421052631576,0.10635964912280702],[""3"",-0.3092105263157895,0.11403508771929824],[""3"",-0.3026315789473684,0.13706140350877194],[""3"",-0.30372807017543857,0.13706140350877194],[""4"",-0.0625,0.20175438596491227],[""4"",-0.11951754385964912,0.006578947368421052],[""4"",-0.24890350877192982,0.02850877192982456],[""4"",-0.26096491228070173,0.039473684210526314],[""4"",-0.26644736842105265,0.08881578947368421],[""4"",-0.26864035087719296,0.1206140350877193],[""4"",-0.2905701754385965,0.11842105263157894],[""4"",-0.34868421052631576,0.13267543859649122],[""4"",-0.3541666666666667,0.13486842105263158],[""1"",-0.06030701754385965,0.13486842105263158],[""1"",-0.03179824561403509,0.13486842105263158],[""2"",-0.20942982456140352,0.12828947368421054],[""2"",-0.09320175438596491,0.14583333333333334],[""3"",-0.20175438596491227,0.13157894736842105],[""3"",-0.15350877192982457,0.14473684210526316],[""4"",-0.20942982456140352,0.1425438596491228],[""4"",-0.2138157894736842,0.1425438596491228],[""5"",-0.046052631578947366,0.31359649122807015],[""5"",-0.20175438596491227,0.2774122807017544],[""5"",-0.2565789473684211,0.16557017543859648],[""5"",-0.26535087719298245,0.14473684210526316],[""6"",-0.05043859649122807,0.30043859649122806],[""5"",-0.2850877192982456,0.16557017543859648],[""6"",-0.1206140350877193,0.28399122807017546],[""6"",-0.1524122807017544,0.27631578947368424],[""5"",-0.2675438596491228,0.16228070175438597],[""5"",-0.25877192982456143,0.14035087719298245],[""6"",-0.2236842105263158,0.2543859649122807],[""6"",-0.30701754385964913,0.15350877192982457],[""6"",-0.31140350877192985,0.14692982456140352],[""7"",-0.021929824561403508,0.3168859649122807],[""7"",-0.08662280701754387,0.3048245614035088],[""7"",-0.10307017543859649,0.28618421052631576],[""7"",-0.29276315789473684,0.23135964912280702],[""7"",-0.36403508771929827,0.15021929824561403],[""7"",-0.36293859649122806,0.14912280701754385],[""8"",0.07785087719298246,0.2807017543859649],[""8"",-0.021929824561403508,0.27960526315789475]]","[[""H"",""A""],[""H"",""C""],[""H"",""A""],[""H"",""E""],[""C"",""E""],[""B"",""E""],[""D"",""E""],[""D"",""B""],[""F"",""B""],[""F"",""D""],[""G"",""D""],[""G"",""F""]]",12,0.507,107.088,0,4,4,4,1,,,,,,,,,,,,
,,,,,,,,,,,,,,,,,,,,,,,,,,,,,,,,,,,,,,,,,,,,,,,,,,,,,,,,,,,materials/merge_sort/imgs/fruits/apple,,,,jl06,001,2021-10-10_09h28.43.935,seq_teaching_exp_inverse,2021.2.3,Win32,29.97601918,,,,,,,,,,,,,,,,,,,,,,,,,,,,,,,,,,,,,,,,,,,,,,,,,,,,,,,,,,,,,,,,,,,,,A,B,"F,D,A,B,E,H,I,C,G,J",0.430921053,-0.32127193,1,0,0,"[""5"",""7"",""6"",""1"",""4"",""9"",""8"",""10"",""2"",""3""]","[""'E'"",""'I'"",""'H'"",""'F'"",""'B'"",""'G'"",""'C'"",""'J'"",""'D'"",""'A'""]","[[""2"",-0.19407894736842105,0.15460526315789475],[""2"",-0.19736842105263158,0.14144736842105263],[""1"",-0.2598684210526316,0.15789473684210525],[""1"",-0.2565789473684211,0.14912280701754385],[""2"",-0.20065789473684212,0.15021929824561403],[""2"",-0.020833333333333332,0.1524122807017544],[""2"",-0.02412280701754386,0.14144736842105263],[""1"",-0.09320175438596491,0.14144736842105263],[""1"",-0.08771929824561403,0.14473684210526316],[""3"",-0.17214912280701755,0.1206140350877193],[""3"",-0.07675438596491228,0.046052631578947366],[""3"",-0.07675438596491228,0.047149122807017545],[""2"",0.046052631578947366,0.14802631578947367],[""3"",-0.010964912280701754,0.1206140350877193],[""3"",-0.023026315789473683,0.13925438596491227],[""4"",-0.14364035087719298,0.18201754385964913],[""4"",-0.14035087719298245,0.1611842105263158],[""5"",-0.15789473684210525,0.23574561403508773],[""5"",-0.1962719298245614,0.05592105263157895],[""5"",-0.11732456140350878,0.0668859649122807],[""4"",-0.1875,0.13267543859649122],[""5"",-0.12938596491228072,0.10087719298245613],[""5"",-0.13486842105263158,0.12828947368421054],[""5"",-0.13925438596491227,0.13048245614035087],[""6"",0.003289473684210526,0.2883771929824561],[""3"",-0.03837719298245614,-0.008771929824561403],[""6"",0.0021929824561403508,0.16557017543859648],[""3"",-0.07236842105263158,0.023026315789473683],[""3"",-0.021929824561403508,0.12171052631578948],[""3"",-0.025219298245614034,0.14144736842105263],[""2"",-0.09978070175438597,0.26096491228070173],[""2"",-0.1524122807017544,0.2532894736842105],[""2"",-0.1425438596491228,0.25877192982456143],[""2"",-0.12280701754385964,0.23574561403508773],[""6"",0.04276315789473684,0.14035087719298245],[""6"",0.03508771929824561,0.14364035087719298],[""2"",0.0010964912280701754,0.17653508771929824],[""2"",0.009868421052631578,0.1337719298245614],[""2"",0.013157894736842105,0.13048245614035087],[""6"",0.09649122807017543,0.18092105263157895],[""6"",-0.08881578947368421,0.010964912280701754],[""6"",-0.09539473684210527,0.03837719298245614],[""6"",-0.03728070175438596,0.03508771929824561],[""6"",0.05701754385964912,0.12280701754385964],[""6"",0.0537280701754386,0.12828947368421054],[""7"",-0.1611842105263158,0.24890350877192982],[""7"",-0.2149122807017544,0.007675438596491228],[""7"",-0.07894736842105263,0.027412280701754384],[""6"",0.10635964912280702,0.14364035087719298],[""6"",0.13048245614035087,0.14364035087719298],[""7"",-0.04824561403508772,0.03508771929824561],[""7"",-0.04824561403508772,0.03070175438596491],[""7"",0.06359649122807018,0.12828947368421054],[""7"",0.0668859649122807,0.13157894736842105],[""8"",0.09868421052631579,0.30701754385964913],[""8"",0.17982456140350878,0.16557017543859648],[""8"",0.18092105263157895,0.14802631578947367],[""9"",-0.047149122807017545,0.27850877192982454],[""9"",-0.2916666666666667,0.1074561403508772],[""9"",-0.20285087719298245,0.01644736842105263],[""4"",-0.23793859649122806,0.13596491228070176],[""9"",-0.19736842105263158,0.019736842105263157],[""4"",-0.25548245614035087,0.13706140350877194],[""9"",-0.19078947368421054,0.13706140350877194],[""9"",-0.19298245614035087,0.13486842105263158],[""10"",0.047149122807017545,0.32456140350877194],[""10"",-0.09100877192982457,0.23355263157894737],[""10"",-0.11513157894736842,0.22149122807017543],[""10"",-0.17105263157894737,0.06359649122807018],[""10"",-0.16885964912280702,0.09320175438596491]]","[[""I"",""E""],[""H"",""E""],[""H"",""I""],[""F"",""I""],[""F"",""H""],[""F"",""E""],[""F"",""B""],[""E"",""B""],[""E"",""G""],[""H"",""G""],[""I"",""G""],[""C"",""G""],[""C"",""F""],[""C"",""H""],[""C"",""I""],[""C"",""G""],[""C"",""J""],[""I"",""J""],[""H"",""J""],[""J"",""I""],[""J"",""C""],[""J"",""G""],[""J"",""D""],[""D"",""G""],[""D"",""C""],[""D"",""H""],[""D"",""B""],[""D"",""F""],[""D"",""B""],[""D"",""A""],[""B"",""A""]]",31,0.51,234.222,0,5,5,5,1,,,,,,,,,,,,
,,,,,,,,,,,,,,,,,,,,,,,,,,,,,,,,,,,,,,,,,,,,,,,,,,,,,,,,,,,,,,,jl06,001,2021-10-10_09h28.43.935,seq_teaching_exp_inverse,2021.2.3,Win32,29.97601918,,,,,,,,,,,,,,,,,,,,,,,,,,,,,,,,,,,,,,,,,,,,,,,,,,,,,,,,,,,,,,,,,,,,,,,,,,,,,,,,,,,,,,,,,,0.084429825,-0.347587719,1,0,0,16.436,0.129385965,-0.137061404,1,0,0
