background_mouse.x,background_mouse.y,background_mouse.leftButton,background_mouse.midButton,background_mouse.rightButton,demographic_age,demographic_education,demographic_gender,background.tEnd,intro_mouse.x,intro_mouse.y,intro_mouse.leftButton,intro_mouse.midButton,intro_mouse.rightButton,intro.tEnd,hint_mouse.x,hint_mouse.y,hint_mouse.leftButton,hint_mouse.midButton,hint_mouse.rightButton,hint.tEnd,sort_intro_mouse.x,sort_intro_mouse.y,sort_intro_mouse.leftButton,sort_intro_mouse.midButton,sort_intro_mouse.rightButton,sort_intro.tEnd,sort_train_scale_right.text,sort_train_scale_left.text,sort_train_res.text,sort_train_mouse.x,sort_train_mouse.y,sort_train_mouse.leftButton,sort_train_mouse.midButton,sort_train_mouse.rightButton,sort_train_input,sort_train_labels,sort_train_trace,sort_train_compareN,sort_train.tStart,sort_train.tEnd,sort_train_compare_records,sort_expl_scale_right.text,sort_expl_scale_left.text,sort_expl_mouse.x,sort_expl_mouse.y,sort_expl_mouse.leftButton,sort_expl_mouse.midButton,sort_expl_mouse.rightButton,sort_expl_trace,sort_expl_compareN,sort_expl_compare_records,sort_expl.tStart,sort_expl.tEnd,TRAIN_2.thisRepN,TRAIN_2.thisTrialN,TRAIN_2.thisN,TRAIN_2.thisIndex,TRAIN_2.ran,img_path_base,input,encryption,ms_compare,participant,session,date,expName,psychopyVersion,OS,frameRate,merge_intro_mouse.x,merge_intro_mouse.y,merge_intro_mouse.leftButton,merge_intro_mouse.midButton,merge_intro_mouse.rightButton,merge_intro.tEnd,merge_train_scale_right.text,merge_train_scale_left.text,merge_train_mouse.x,merge_train_mouse.y,merge_train_mouse.leftButton,merge_train_mouse.midButton,merge_train_mouse.rightButton,merge_train_mouse.clicked_name,merge_train.tStart,mc_order,merge_train_compareN,merge_train_labels,merge_train_input,merge_train_compare_records,merge_train_mouse_clicked,merge_train.tEnd,merge_expl_mouse.x,merge_expl_mouse.y,merge_expl_mouse.leftButton,merge_expl_mouse.midButton,merge_expl_mouse.rightButton,merge_expl.tStart,merge_expl.tEnd,TRAIN_1.thisRepN,TRAIN_1.thisTrialN,TRAIN_1.thisN,TRAIN_1.thisIndex,TRAIN_1.ran,img_path,mc_path_1,mc_path_2,merge_test_intro_mouse.x,merge_test_intro_mouse.y,merge_test_intro_mouse.leftButton,merge_test_intro_mouse.midButton,merge_test_intro_mouse.rightButton,merge_test_intro.tEnd,merge_test_scale_right.text,merge_test_scale_left.text,merge_test_res.text,merge_test_mouse.x,merge_test_mouse.y,merge_test_mouse.leftButton,merge_test_mouse.midButton,merge_test_mouse.rightButton,merge_test_input,merge_test_labels,merge_test_compareN,merge_test_compare_records,merge_test.tStart,merge_test.tEnd,TEST_1.thisRepN,TEST_1.thisTrialN,TEST_1.thisN,TEST_1.thisIndex,TEST_1.ran,sort_test_intro_mouse.x,sort_test_intro_mouse.y,sort_test_intro_mouse.leftButton,sort_test_intro_mouse.midButton,sort_test_intro_mouse.rightButton,sort_test_intro.tEnd,sort_test_scale_right.text,sort_test_scale_left.text,sort_test_res.text,sort_test_mouse.x,sort_test_mouse.y,sort_test_mouse.leftButton,sort_test_mouse.midButton,sort_test_mouse.rightButton,sort_test_input,sort_test_labels,sort_test_trace,sort_test_compare_records,sort_test_compareN,sort_test.tStart,sort_test.tEnd,TEST_2.thisRepN,TEST_2.thisTrialN,TEST_2.thisN,TEST_2.thisIndex,TEST_2.ran,exp_check_res.text,exp_check_mouse.x,exp_check_mouse.y,exp_check_mouse.leftButton,exp_check_mouse.midButton,exp_check_mouse.rightButton,exp_check.tEnd,debrief_mouse.x,debrief_mouse.y,debrief_mouse.leftButton,debrief_mouse.midButton,debrief_mouse.rightButton
0.009114583,-0.39453125,1,0,0,_18_24,high_school_equivalent,male,21.9966,-0.001302083,-0.372395833,1,0,0,14.9352,-0.005208333,-0.395833333,1,0,0,5.0718,0.001302083,-0.399739583,1,0,0,36.592,F,C,"E,F,C,D,A,B",0.427083333,-0.36328125,1,0,0,"[""5"",""4"",""6"",""3"",""1"",""2""]","[""'A'"",""'D'"",""'B'"",""'C'"",""'E'"",""'F'""]","[[""1"",-0.2825520833333333,0.2981770833333333],[""1"",-0.265625,0.29296875],[""1"",-0.2591145833333333,0.24088541666666666],[""1"",-0.22265625,0.24088541666666666],[""3"",-0.15364583333333334,0.265625],[""3"",-0.20963541666666666,0.2955729166666667],[""3"",-0.23697916666666666,0.2955729166666667],[""1"",-0.20703125,0.25],[""1"",-0.15885416666666666,0.2864583333333333],[""1"",-0.17317708333333334,0.31640625],[""1"",-0.18619791666666666,0.328125],[""3"",-0.265625,0.30859375],[""3"",-0.2747395833333333,0.2994791666666667],[""3"",-0.25390625,0.2994791666666667],[""3"",-0.21354166666666666,0.3033854166666667],[""3"",-0.1953125,0.2981770833333333],[""3"",-0.18098958333333334,0.29296875],[""1"",-0.234375,0.31640625],[""1"",-0.2526041666666667,0.30078125],[""1"",-0.25,0.2981770833333333],[""2"",-0.06901041666666667,0.2890625],[""2"",-0.1015625,0.2994791666666667],[""2"",-0.15234375,0.2994791666666667],[""2"",-0.1328125,0.2994791666666667],[""2"",-0.13151041666666666,0.2994791666666667],[""3"",-0.18619791666666666,0.2903645833333333],[""3"",-0.17708333333333334,0.2994791666666667],[""1"",-0.171875,0.1640625],[""1"",-0.11197916666666667,0.15625],[""3"",-0.16796875,0.2565104166666667],[""3"",-0.037760416666666664,0.16145833333333334],[""3"",-0.006510416666666667,0.140625],[""3"",0.006510416666666667,0.13932291666666666],[""2"",-0.22395833333333334,0.18229166666666666],[""2"",-0.22786458333333334,0.1484375],[""2"",-0.21614583333333334,0.16796875],[""5"",-0.041666666666666664,0.30078125],[""5"",-0.17317708333333334,0.17708333333333334],[""5"",-0.20442708333333334,0.10677083333333333],[""5"",-0.21484375,0.10416666666666667],[""5"",-0.21484375,0.11067708333333333],[""4"",-0.12109375,0.3033854166666667],[""4"",-0.20052083333333334,0.23828125],[""4"",-0.22265625,0.22916666666666666],[""4"",-0.23177083333333334,0.22916666666666666],[""6"",-0.016927083333333332,0.3059895833333333],[""6"",-0.07552083333333333,0.3059895833333333],[""6"",-0.19921875,0.2916666666666667],[""6"",-0.22135416666666666,0.2760416666666667],[""3"",0.03515625,0.20182291666666666],[""3"",0.044270833333333336,0.21354166666666666],[""1"",-0.06510416666666667,0.18880208333333334],[""1"",-0.01953125,0.20963541666666666],[""1"",-0.00390625,0.21614583333333334],[""1"",-0.0026041666666666665,0.21614583333333334],[""4"",-0.1796875,0.23177083333333334],[""4"",-0.13541666666666666,0.23307291666666666],[""4"",-0.10416666666666667,0.23697916666666666],[""6"",-0.22395833333333334,0.2669270833333333],[""6"",-0.19010416666666666,0.2513020833333333],[""6"",-0.18489583333333334,0.2513020833333333],[""6"",-0.24348958333333334,0.20963541666666666],[""6"",-0.24479166666666666,0.20963541666666666],[""6"",-0.1484375,0.20703125],[""6"",-0.1796875,0.22916666666666666],[""6"",-0.2265625,0.22526041666666666],[""6"",-0.22395833333333334,0.23307291666666666],[""2"",-0.20703125,0.18359375],[""2"",-0.13802083333333334,0.18229166666666666],[""2"",-0.09635416666666667,0.18489583333333334],[""5"",-0.22005208333333334,0.1171875],[""5"",-0.3359375,0.21744791666666666],[""5"",-0.296875,0.22786458333333334],[""5"",-0.2955729166666667,0.22786458333333334],[""4"",-0.12109375,0.24348958333333334],[""4"",-0.16145833333333334,0.23307291666666666],[""4"",-0.14973958333333334,0.22265625],[""4"",-0.14713541666666666,0.22265625],[""2"",-0.09375,0.19791666666666666],[""2"",-0.05859375,0.23697916666666666],[""2"",-0.0625,0.22265625]]",11,0.5001,194.0485,"[[""A"",""B""],[""A"",""D""],[""A"",""E""],[""A"",""C""],[""A"",""F""],[""C"",""F""],[""D"",""F""],[""E"",""F""],[""C"",""D""],[""A"",""D""],[""C"",""F""]]",,,0.518229167,-0.352864583,1,0,0,[],0,[],0.5018,30.8321,0,0,0,0,1,materials/merge_sort/imgs/fruits/apple,,,8,jl08,001,2021-10-09_10h34.42.736,seq_teaching_exp_inverse,2021.2.3,Win32,59.95922773,,,,,,,,,,,,,,,,,,,,,,,,,,,,,,,,,,,,,,,,,,,,,,,,,,,,,,,,,,,,,,,,,,,,,,,,,,,,,,,,,,,,,,,,,,,,,,,,,,,,
,,,,,,,,,,,,,,,,,,,,,,,,,,,E,A,"G,B,F,E,A,C,D",0.513020833,-0.345052083,1,0,0,"[""6"",""2"",""4"",""7"",""5"",""3"",""1""]","[""'C'"",""'B'"",""'E'"",""'D'"",""'A'"",""'F'"",""'G'""]","[[""1"",-0.34375,0.2903645833333333],[""2"",-0.20442708333333334,0.2786458333333333],[""2"",-0.22265625,0.3125],[""2"",-0.21744791666666666,0.3098958333333333],[""1"",-0.34765625,0.2942708333333333],[""1"",-0.2799479166666667,0.3151041666666667],[""1"",-0.21223958333333334,0.15104166666666666],[""1"",-0.15885416666666666,0.13411458333333334],[""1"",-0.10026041666666667,0.15234375],[""1"",-0.032552083333333336,0.15755208333333334],[""2"",-0.25390625,0.14453125],[""2"",-0.21744791666666666,0.17057291666666666],[""2"",-0.21744791666666666,0.1640625],[""2"",-0.21875,0.16015625],[""3"",-0.14583333333333334,0.20182291666666666],[""3"",-0.18098958333333334,0.10546875],[""3"",-0.20703125,0.08984375],[""4"",-0.009114583333333334,0.14973958333333334],[""4"",0.0859375,0.16145833333333334],[""4"",0.09635416666666667,0.17708333333333334],[""5"",-0.19661458333333334,0.23958333333333334],[""5"",-0.20572916666666666,0.22265625],[""6"",-0.046875,0.26171875],[""6"",-0.14322916666666666,0.2916666666666667],[""6"",-0.18880208333333334,0.2760416666666667],[""7"",0.044270833333333336,0.30859375],[""7"",0.016927083333333332,0.30859375],[""7"",-0.01171875,0.3190104166666667],[""7"",-0.11848958333333333,0.3229166666666667],[""7"",-0.21354166666666666,0.3111979166666667],[""7"",-0.19010416666666666,0.3333333333333333],[""7"",-0.18619791666666666,0.32421875],[""1"",-0.03515625,0.16015625],[""1"",0.026041666666666668,0.171875],[""1"",0.032552083333333336,0.18359375],[""5"",-0.20442708333333334,0.23307291666666666],[""5"",-0.13932291666666666,0.20703125],[""5"",-0.12239583333333333,0.20833333333333334],[""5"",-0.11328125,0.20963541666666666],[""6"",-0.20182291666666666,0.2630208333333333],[""6"",-0.20572916666666666,0.2421875],[""6"",-0.1171875,0.21875],[""6"",-0.07682291666666667,0.20052083333333334],[""6"",-0.1015625,0.19270833333333334],[""6"",-0.16145833333333334,0.22005208333333334],[""6"",-0.19010416666666666,0.2265625],[""6"",-0.140625,0.21875],[""5"",-0.18619791666666666,0.20182291666666666],[""5"",-0.20703125,0.23177083333333334],[""6"",-0.15104166666666666,0.22135416666666666],[""6"",-0.10677083333333333,0.17578125],[""6"",-0.09114583333333333,0.18098958333333334],[""6"",-0.09114583333333333,0.18619791666666666],[""5"",-0.13541666666666666,0.24739583333333334],[""5"",-0.11067708333333333,0.25],[""5"",-0.08333333333333333,0.2513020833333333],[""5"",-0.0546875,0.2421875],[""5"",-0.08203125,0.2591145833333333],[""5"",-0.08333333333333333,0.2526041666666667],[""2"",-0.21484375,0.16276041666666666],[""2"",-0.19401041666666666,0.15755208333333334],[""2"",-0.09895833333333333,0.12630208333333334],[""2"",-0.09635416666666667,0.12369791666666667],[""7"",-0.23567708333333334,0.2630208333333333],[""7"",-0.3203125,0.20833333333333334],[""7"",-0.3059895833333333,0.20572916666666666],[""3"",-0.17317708333333334,0.08723958333333333],[""3"",-0.13802083333333334,0.06510416666666667],[""3"",-0.10026041666666667,0.05859375],[""3"",-0.08984375,0.05859375],[""6"",-0.13020833333333334,0.203125],[""6"",-0.18489583333333334,0.1953125],[""6"",-0.15494791666666666,0.19140625],[""5"",-0.07942708333333333,0.25],[""5"",-0.07682291666666667,0.21484375],[""5"",-0.07942708333333333,0.20052083333333334],[""5"",-0.08723958333333333,0.1953125],[""5"",-0.08333333333333333,0.19401041666666666],[""2"",-0.15364583333333334,0.14322916666666666],[""2"",-0.18229166666666666,0.16536458333333334],[""2"",-0.20442708333333334,0.17708333333333334],[""2"",-0.21744791666666666,0.18880208333333334],[""3"",-0.09505208333333333,0.07552083333333333],[""3"",-0.09895833333333333,0.140625],[""3"",-0.11328125,0.14583333333333334],[""5"",-0.07682291666666667,0.203125],[""5"",-0.053385416666666664,0.19661458333333334],[""5"",-0.048177083333333336,0.19401041666666666],[""5"",-0.045572916666666664,0.19401041666666666],[""3"",-0.10546875,0.16666666666666666],[""3"",-0.09375,0.1953125],[""7"",-0.2981770833333333,0.19661458333333334],[""7"",-0.2890625,0.19140625],[""7"",-0.2877604166666667,0.19140625]]",14,0.509,168.4613,"[[""C"",""B""],[""C"",""E""],[""C"",""D""],[""C"",""A""],[""C"",""F""],[""C"",""G""],[""F"",""G""],[""A"",""G""],[""B"",""G""],[""E"",""G""],[""F"",""A""],[""F"",""B""],[""F"",""E""],[""A"",""E""]]",,,0.514322917,-0.356770833,1,0,0,[],0,[],0.5035,28.9694,0,1,1,1,1,materials/merge_sort/imgs/fruits/banana,,,12,jl08,001,2021-10-09_10h34.42.736,seq_teaching_exp_inverse,2021.2.3,Win32,59.95922773,,,,,,,,,,,,,,,,,,,,,,,,,,,,,,,,,,,,,,,,,,,,,,,,,,,,,,,,,,,,,,,,,,,,,,,,,,,,,,,,,,,,,,,,,,,,,,,,,,,,
,,,,,,,,,,,,,,,,,,,,,,,,,,,H,D,"C,H,D,F,E,A,B,G",0.515625,-0.348958333,1,0,0,"[""7"",""6"",""5"",""8"",""4"",""3"",""2"",""1""]","[""'B'"",""'A'"",""'E'"",""'G'"",""'F'"",""'D'"",""'H'"",""'C'""]","[[""1"",-0.24869791666666666,0.3033854166666667],[""1"",-0.12109375,0.16927083333333334],[""1"",-0.049479166666666664,0.171875],[""2"",-0.20442708333333334,0.2942708333333333],[""2"",-0.24869791666666666,0.1640625],[""3"",-0.18098958333333334,0.22005208333333334],[""3"",-0.20703125,0.14583333333333334],[""3"",-0.2265625,0.10286458333333333],[""3"",-0.2421875,0.1015625],[""3"",-0.24479166666666666,0.1015625],[""4"",0.09114583333333333,0.20703125],[""4"",0.11458333333333333,0.20052083333333334],[""4"",0.1171875,0.18489583333333334],[""4"",0.12109375,0.15625],[""5"",-0.12109375,0.2799479166666667],[""5"",-0.21484375,0.2591145833333333],[""5"",-0.23307291666666666,0.24348958333333334],[""5"",-0.23567708333333334,0.234375],[""6"",-0.040364583333333336,0.30078125],[""6"",-0.07291666666666667,0.3046875],[""6"",-0.13671875,0.296875],[""6"",-0.2109375,0.2890625],[""6"",-0.23046875,0.2864583333333333],[""7"",0.009114583333333334,0.22916666666666666],[""7"",-0.15885416666666666,0.0859375],[""7"",-0.21484375,0.052083333333333336],[""7"",-0.22265625,0.045572916666666664],[""8"",0.08723958333333333,0.3190104166666667],[""8"",0.041666666666666664,0.3059895833333333],[""8"",-0.01953125,0.3268229166666667],[""8"",-0.036458333333333336,0.3385416666666667],[""8"",-0.21614583333333334,0.328125],[""8"",-0.22135416666666666,0.3333333333333333],[""4"",0.12630208333333334,0.21744791666666666],[""4"",0.12630208333333334,0.21875],[""1"",-0.03125,0.19140625],[""1"",0.041666666666666664,0.2109375],[""1"",0.061197916666666664,0.21484375],[""5"",-0.21484375,0.19791666666666666],[""5"",-0.16666666666666666,0.20572916666666666],[""5"",-0.16796875,0.20572916666666666],[""5"",-0.16796875,0.20442708333333334],[""8"",-0.24739583333333334,0.2942708333333333],[""8"",-0.25390625,0.2513020833333333],[""8"",-0.24739583333333334,0.23307291666666666],[""8"",-0.18880208333333334,0.22005208333333334],[""8"",-0.10286458333333333,0.171875],[""8"",-0.12760416666666666,0.20182291666666666],[""8"",-0.14453125,0.203125],[""5"",-0.18098958333333334,0.2109375],[""5"",-0.0703125,0.23307291666666666],[""5"",-0.08463541666666667,0.21354166666666666],[""5"",-0.08463541666666667,0.20182291666666666],[""5"",-0.09635416666666667,0.19791666666666666],[""6"",-0.15625,0.2669270833333333],[""6"",-0.1484375,0.2513020833333333],[""6"",-0.14713541666666666,0.2513020833333333],[""6"",-0.14713541666666666,0.2552083333333333],[""2"",-0.059895833333333336,0.20182291666666666],[""2"",-0.03125,0.22916666666666666],[""2"",-0.02734375,0.20963541666666666],[""2"",-0.03125,0.20703125],[""3"",-0.24739583333333334,0.10286458333333333],[""3"",-0.14453125,0.11588541666666667],[""2"",-0.015625,0.22135416666666666],[""2"",-0.018229166666666668,0.22135416666666666],[""3"",-0.048177083333333336,0.17578125],[""3"",-0.016927083333333332,0.18489583333333334],[""2"",-0.018229166666666668,0.22916666666666666],[""2"",-0.0234375,0.2421875],[""2"",-0.029947916666666668,0.24609375],[""3"",-0.029947916666666668,0.203125],[""3"",-0.03515625,0.20572916666666666],[""3"",-0.040364583333333336,0.20572916666666666],[""3"",-0.02734375,0.20963541666666666],[""3"",-0.029947916666666668,0.20963541666666666],[""7"",-0.16145833333333334,0.09244791666666667],[""7"",-0.14583333333333334,0.13411458333333334],[""7"",-0.14583333333333334,0.13932291666666666],[""2"",-0.018229166666666668,0.18229166666666666],[""2"",-0.028645833333333332,0.16666666666666666],[""2"",-0.009114583333333334,0.1640625],[""2"",-0.01953125,0.1484375],[""2"",0.005208333333333333,0.18359375],[""2"",0.014322916666666666,0.20833333333333334],[""2"",0.013020833333333334,0.21354166666666666],[""7"",-0.16666666666666666,0.14973958333333334],[""7"",-0.1875,0.14583333333333334],[""8"",-0.171875,0.203125],[""8"",-0.1953125,0.20052083333333334],[""6"",-0.19140625,0.24609375],[""6"",-0.20052083333333334,0.24609375],[""6"",-0.1875,0.2513020833333333],[""7"",-0.19270833333333334,0.1484375],[""7"",-0.19791666666666666,0.140625],[""6"",-0.19140625,0.2421875],[""6"",-0.18229166666666666,0.22786458333333334],[""6"",-0.17057291666666666,0.21744791666666666],[""6"",-0.17057291666666666,0.21614583333333334],[""8"",-0.25,0.20572916666666666],[""8"",-0.23177083333333334,0.21223958333333334],[""7"",-0.21614583333333334,0.14453125],[""7"",-0.21484375,0.13411458333333334],[""6"",-0.17708333333333334,0.20703125],[""6"",-0.17317708333333334,0.20182291666666666],[""6"",-0.171875,0.20182291666666666],[""7"",-0.21223958333333334,0.13671875],[""7"",-0.20703125,0.13411458333333334],[""7"",-0.20572916666666666,0.1328125],[""7"",-0.19270833333333334,0.19140625],[""7"",-0.20052083333333334,0.19401041666666666]]",16,0.5139,198.2848,"[[""B"",""A""],[""B"",""E""],[""B"",""G""],[""B"",""F""],[""B"",""D""],[""B"",""H""],[""B"",""C""],[""F"",""C""],[""F"",""D""],[""F"",""A""],[""F"",""E""],[""F"",""H""],[""A"",""E""],[""C"",""D""],[""C"",""H""],[""D"",""H""]]",,,0.5,-0.352864583,1,0,0,[],0,[],0.5105,4.1464,0,2,2,2,1,materials/merge_sort/imgs/fruits/apple,,,13,jl08,001,2021-10-09_10h34.42.736,seq_teaching_exp_inverse,2021.2.3,Win32,59.95922773,,,,,,,,,,,,,,,,,,,,,,,,,,,,,,,,,,,,,,,,,,,,,,,,,,,,,,,,,,,,,,,,,,,,,,,,,,,,,,,,,,,,,,,,,,,,,,,,,,,,
,,,,,,,,,,,,,,,,,,,,,,,,,,,E,A,"D,I,J,E,A,",-0.149739583,-0.28515625,0,0,0,"[""8"",""6"",""4"",""3"",""2"",""10"",""9"",""7"",""1"",""5""]","[""'G'"",""'C'"",""'E'"",""'J'"",""'I'"",""'H'"",""'F'"",""'B'"",""'D'"",""'A'""]","[[""1"",-0.24869791666666666,0.296875],[""1"",-0.2565104166666667,0.2760416666666667],[""1"",-0.27734375,0.24348958333333334],[""2"",-0.20052083333333334,0.24348958333333334],[""2"",-0.20442708333333334,0.2421875],[""2"",-0.2109375,0.24739583333333334],[""2"",-0.19921875,0.2903645833333333],[""2"",-0.22135416666666666,0.30078125],[""2"",-0.20833333333333334,0.3059895833333333],[""1"",-0.28515625,0.2838541666666667],[""1"",-0.2747395833333333,0.2994791666666667],[""2"",-0.1875,0.203125],[""2"",-0.140625,0.19661458333333334],[""2"",-0.08072916666666667,0.18489583333333334],[""2"",-0.16536458333333334,0.15104166666666666],[""2"",-0.171875,0.15104166666666666],[""1"",-0.20833333333333334,0.2708333333333333],[""1"",-0.17838541666666666,0.23177083333333334],[""1"",-0.0625,0.17057291666666666],[""1"",-0.046875,0.15755208333333334],[""1"",-0.048177083333333336,0.15755208333333334],[""3"",-0.14713541666666666,0.15494791666666666],[""3"",-0.15755208333333334,0.1015625],[""3"",-0.15885416666666666,0.09375],[""4"",-0.09635416666666667,0.30078125],[""4"",-0.18098958333333334,0.20703125],[""4"",-0.16796875,0.20703125],[""4"",-0.16666666666666666,0.20703125],[""5"",-0.13411458333333334,0.2877604166666667],[""5"",-0.16015625,0.27734375],[""5"",-0.16276041666666666,0.2708333333333333],[""6"",-0.01171875,0.23567708333333334],[""6"",0.06770833333333333,0.15885416666666666],[""6"",0.10416666666666667,0.16276041666666666],[""7"",-0.057291666666666664,0.3098958333333333],[""7"",-0.06380208333333333,0.3229166666666667],[""7"",0.044270833333333336,0.15364583333333334],[""7"",0.09244791666666667,0.06510416666666667],[""7"",0.10286458333333333,0.09375],[""7"",0.10286458333333333,0.09895833333333333],[""8"",0.053385416666666664,0.3059895833333333],[""5"",-0.14322916666666666,0.3033854166666667],[""5"",-0.14322916666666666,0.3125],[""5"",-0.16015625,0.2877604166666667],[""5"",-0.16796875,0.2578125],[""8"",0.015625,0.3072916666666667],[""5"",-0.14583333333333334,0.3346354166666667],[""5"",-0.15104166666666666,0.2955729166666667],[""5"",-0.15885416666666666,0.2942708333333333],[""8"",-0.049479166666666664,0.3177083333333333],[""8"",-0.13020833333333334,0.24869791666666666],[""8"",-0.11458333333333333,0.036458333333333336],[""8"",-0.17838541666666666,0.006510416666666667],[""8"",-0.16536458333333334,0.045572916666666664],[""9"",0.026041666666666668,0.2604166666666667],[""9"",-0.029947916666666668,0.2734375],[""9"",-0.10026041666666667,0.2825520833333333],[""9"",-0.11197916666666667,0.28125],[""9"",-0.10546875,0.24609375],[""10"",0.055989583333333336,0.2669270833333333],[""9"",-0.12239583333333333,0.24088541666666666],[""9"",-0.10416666666666667,0.2591145833333333],[""9"",-0.13411458333333334,0.25],[""9"",-0.12630208333333334,0.2526041666666667],[""10"",0.013020833333333334,0.2942708333333333],[""10"",-0.061197916666666664,0.3098958333333333],[""10"",-0.08854166666666667,0.3138020833333333],[""10"",-0.09244791666666667,0.3138020833333333],[""6"",0.12369791666666667,0.17447916666666666],[""6"",0.21484375,0.18098958333333334],[""6"",0.24739583333333334,0.18229166666666666],[""6"",0.24479166666666666,0.18489583333333334],[""6"",0.359375,0.18359375],[""6"",0.3515625,0.18489583333333334],[""6"",0.3489583333333333,0.18489583333333334],[""7"",0.10807291666666667,0.10677083333333333],[""7"",0.203125,0.15885416666666666],[""7"",0.2760416666666667,0.17838541666666666],[""7"",0.2786458333333333,0.18359375],[""7"",0.2760416666666667,0.18359375],[""1"",0.11588541666666667,0.17708333333333334],[""1"",0.17708333333333334,0.18619791666666666],[""1"",0.18880208333333334,0.1875],[""1"",0.19010416666666666,0.18880208333333334],[""8"",-0.15494791666666666,0.05078125],[""8"",-0.049479166666666664,0.14453125],[""8"",-0.049479166666666664,0.15755208333333334],[""8"",-0.05078125,0.15625],[""8"",-0.048177083333333336,0.15625],[""8"",-0.041666666666666664,0.15755208333333334],[""10"",-0.08333333333333333,0.3111979166666667],[""10"",-0.07421875,0.06901041666666667],[""10"",-0.10807291666666667,0.028645833333333332],[""10"",-0.109375,0.028645833333333332],[""10"",-0.10546875,0.03515625],[""10"",-0.11067708333333333,0.029947916666666668],[""10"",-0.11197916666666667,0.029947916666666668],[""10"",-0.12890625,0.015625],[""8"",-0.033854166666666664,0.078125],[""8"",-0.032552083333333336,0.036458333333333336],[""3"",-0.1484375,0.11197916666666667],[""3"",-0.20572916666666666,0.24869791666666666],[""3"",-0.20052083333333334,0.2578125],[""2"",-0.20052083333333334,0.19010416666666666],[""2"",-0.2109375,0.19791666666666666],[""10"",-0.11588541666666667,0.05859375],[""10"",-0.12109375,0.048177083333333336],[""5"",-0.14322916666666666,0.3098958333333333],[""5"",-0.026041666666666668,0.2565104166666667],[""5"",-0.09635416666666667,0.13671875],[""5"",-0.11067708333333333,0.1171875],[""5"",-0.11328125,0.10416666666666667],[""5"",-0.11328125,0.09895833333333333],[""9"",-0.10807291666666667,0.21875],[""9"",-0.15364583333333334,0.044270833333333336],[""9"",-0.15885416666666666,0.032552083333333336],[""9"",-0.16276041666666666,0.03515625],[""9"",-0.16536458333333334,0.036458333333333336],[""4"",-0.16276041666666666,0.11458333333333333],[""4"",-0.1640625,0.10416666666666667],[""3"",-0.13932291666666666,0.24348958333333334],[""3"",-0.13541666666666666,0.19661458333333334],[""3"",-0.12239583333333333,0.15625],[""3"",-0.12109375,0.15625],[""8"",0.016927083333333332,0.15234375],[""8"",0.09114583333333333,0.18229166666666666],[""8"",0.10807291666666667,0.1953125],[""2"",-0.2109375,0.20963541666666666],[""2"",-0.19401041666666666,0.19270833333333334],[""2"",-0.1953125,0.18229166666666666],[""4"",-0.14973958333333334,0.1640625],[""4"",-0.10416666666666667,0.3046875],[""4"",-0.09635416666666667,0.30078125],[""2"",-0.18880208333333334,0.19140625],[""2"",-0.0390625,0.2786458333333333],[""2"",-0.00390625,0.3046875],[""3"",-0.125,0.16536458333333334],[""3"",-0.07942708333333333,0.19401041666666666],[""3"",-0.046875,0.22395833333333334],[""3"",-0.0013020833333333333,0.24348958333333334],[""3"",-0.00390625,0.2526041666666667],[""5"",-0.1328125,0.22916666666666666],[""5"",-0.1640625,0.24869791666666666],[""5"",-0.19791666666666666,0.2864583333333333],[""5"",-0.19791666666666666,0.2877604166666667],[""9"",-0.17578125,0.0546875],[""9"",-0.203125,0.20703125],[""9"",-0.21223958333333334,0.21223958333333334],[""10"",-0.014322916666666666,0.18489583333333334],[""10"",-0.0026041666666666665,0.19921875],[""9"",-0.24739583333333334,0.24739583333333334],[""9"",-0.2578125,0.2734375],[""9"",-0.26171875,0.2760416666666667],[""5"",-0.18880208333333334,0.2903645833333333],[""4"",-0.10807291666666667,0.3020833333333333],[""4"",-0.11979166666666667,0.2786458333333333],[""2"",0.05859375,0.2708333333333333],[""2"",0.061197916666666664,0.26953125],[""10"",0.03515625,0.23046875],[""10"",0.04296875,0.2265625],[""10"",0.04296875,0.21875]]",25,0.5014,240.0027,"[[""G"",""C""],[""G"",""E""],[""G"",""J""],[""G"",""I""],[""G"",""H""],[""G"",""F""],[""G"",""B""],[""G"",""D""],[""G"",""A""],[""F"",""H""],[""B"",""A""],[""B"",""I""],[""B"",""D""],[""B"",""J""],[""B"",""F""],[""B"",""E""],[""B"",""C""],[""J"",""C""],[""J"",""E""],[""J"",""I""],[""J"",""D""],[""J"",""A""],[""D"",""I""],[""C"",""E""],[""A"",""E""]]",,,0.4609375,-0.334635417,1,0,0,"[[""2"",0.0546875,0.2981770833333333],[""2"",0.053385416666666664,0.2981770833333333]]",0,[],0.5033,47.0744,0,3,3,3,1,materials/merge_sort/imgs/fruits/melon,,,21,jl08,001,2021-10-09_10h34.42.736,seq_teaching_exp_inverse,2021.2.3,Win32,59.95922773,,,,,,,,,,,,,,,,,,,,,,,,,,,,,,,,,,,,,,,,,,,,,,,,,,,,,,,,,,,,,,,,,,,,,,,,,,,,,,,,,,,,,,,,,,,,,,,,,,,,
,,,,,,,,,,,,,,,,,,,,,,,,,,,,,,,,,,,,,,,,,,,,,,,,,,,,,,,,,,,,,,,jl08,001,2021-10-09_10h34.42.736,seq_teaching_exp_inverse,2021.2.3,Win32,59.95922773,0.09375,-0.40234375,1,0,0,72.9895,,,0.489583333,-0.255208333,1,0,0,merge_train_btn_1,0.5104,"[0,1]",0,"[""'A'"",""'B'""]","[""4"",""2""]",[],"[""merge_train_btn_1""]",23.6062,0.368489583,-0.412760417,1,0,0,0.5112,11.0493,0,0,0,0,1,materials/merge_sort/imgs/merge_train/merge_train_ex_1.png,materials/merge_sort/imgs/merge_train/merge_train_ex_1_1_correct.png,materials/merge_sort/imgs/merge_train/merge_train_ex_1_1_wrong.png,,,,,,,,,,,,,,,,,,,,,,,,,,,,,,,,,,,,,,,,,,,,,,,,,,,,,,,,,,,,,,,
,,,,,,,,,,,,,,,,,,,,,,,,,,,,,,,,,,,,,,,,,,,,,,,,,,,,,,,,,,,,,,,jl08,001,2021-10-09_10h34.42.736,seq_teaching_exp_inverse,2021.2.3,Win32,59.95922773,,,,,,,D,B,0.4921875,-0.3984375,1,0,0,merge_train_btn_2,0.5057,"[1,0]",2,"[""'A'"",""'B'"",""'D'"",""'C'""]","[""1"",""4"",""2"",""3""]","[[""A"",""D""],[""B"",""D""]]","[""merge_train_btn_2""]",21.5471,0.359375,-0.434895833,1,0,0,0.5134,8.1212,0,1,1,1,1,materials/merge_sort/imgs/merge_train/merge_train_ex_2.png,materials/merge_sort/imgs/merge_train/merge_train_ex_2_1_correct.png,materials/merge_sort/imgs/merge_train/merge_train_ex_2_1_wrong.png,,,,,,,,,,,,,,,,,,,,,,,,,,,,,,,,,,,,,,,,,,,,,,,,,,,,,,,,,,,,,,,
,,,,,,,,,,,,,,,,,,,,,,,,,,,,,,,,,,,,,,,,,,,,,,,,,,,,,,,,,,,,,,,jl08,001,2021-10-09_10h34.42.736,seq_teaching_exp_inverse,2021.2.3,Win32,59.95922773,,,,,,,C,B,0.442708333,-0.38671875,1,0,0,merge_train_btn_2,0.517,"[1,0]",1,"[""'A'"",""'B'"",""'D'"",""'C'""]","[""1"",""4"",""2"",""3""]","[[""B"",""C""]]","[""merge_train_btn_2""]",11.4366,0.295572917,-0.408854167,1,0,0,0.513,4.0804,0,2,2,2,1,materials/merge_sort/imgs/merge_train/merge_train_ex_2.png,materials/merge_sort/imgs/merge_train/merge_train_ex_2_2_correct.png,materials/merge_sort/imgs/merge_train/merge_train_ex_2_2_wrong.png,,,,,,,,,,,,,,,,,,,,,,,,,,,,,,,,,,,,,,,,,,,,,,,,,,,,,,,,,,,,,,,
,,,,,,,,,,,,,,,,,,,,,,,,,,,,,,,,,,,,,,,,,,,,,,,,,,,,,,,,,,,,,,,jl08,001,2021-10-09_10h34.42.736,seq_teaching_exp_inverse,2021.2.3,Win32,59.95922773,,,,,,,E,B,0.48046875,-0.384114583,1,0,0,merge_train_btn_2,0.5108,"[1,0]",1,"[""'C'"",""'D'"",""'B'"",""'A'"",""'G'"",""'E'"",""'F'""]","[""1"",""2"",""5"",""7"",""3"",""4"",""6""]","[[""B"",""E""]]","[""merge_train_btn_2""]",16.2127,0.40234375,-0.44140625,1,0,0,0.5127,2.0461,0,3,3,3,1,materials/merge_sort/imgs/merge_train/merge_train_ex_5.png,materials/merge_sort/imgs/merge_train/merge_train_ex_5_1_correct.png,materials/merge_sort/imgs/merge_train/merge_train_ex_5_1_wrong.png,,,,,,,,,,,,,,,,,,,,,,,,,,,,,,,,,,,,,,,,,,,,,,,,,,,,,,,,,,,,,,,
,,,,,,,,,,,,,,,,,,,,,,,,,,,,,,,,,,,,,,,,,,,,,,,,,,,,,,,,,,,,,,,jl08,001,2021-10-09_10h34.42.736,seq_teaching_exp_inverse,2021.2.3,Win32,59.95922773,,,,,,,B,F,0.518229167,-0.408854167,1,0,0,merge_train_btn_2,0.5161,"[0,1]",1,"[""'C'"",""'D'"",""'B'"",""'A'"",""'G'"",""'E'"",""'F'""]","[""1"",""2"",""5"",""7"",""3"",""4"",""6""]","[[""F"",""B""]]","[""merge_train_btn_2""]",20.2736,0.356770833,-0.39453125,1,0,0,0.5126,10.7834,0,4,4,4,1,materials/merge_sort/imgs/merge_train/merge_train_ex_5.png,materials/merge_sort/imgs/merge_train/merge_train_ex_5_2_correct.png,materials/merge_sort/imgs/merge_train/merge_train_ex_5_2_wrong.png,,,,,,,,,,,,,,,,,,,,,,,,,,,,,,,,,,,,,,,,,,,,,,,,,,,,,,,,,,,,,,,
,,,,,,,,,,,,,,,,,,,,,,,,,,,,,,,,,,,,,,,,,,,,,,,,,,,,,,,,,,,,,,,jl08,001,2021-10-09_10h34.42.736,seq_teaching_exp_inverse,2021.2.3,Win32,59.95922773,,,,,,,A,F,0.453125,-0.419270833,1,0,0,merge_train_btn_2,0.5066,"[0,1]",1,"[""'C'"",""'D'"",""'B'"",""'A'"",""'G'"",""'E'"",""'F'""]","[""1"",""2"",""5"",""7"",""3"",""4"",""6""]","[[""F"",""A""]]","[""merge_train_btn_2""]",25.8329,0.427083333,-0.427083333,1,0,0,0.5141,5.2978,0,5,5,5,1,materials/merge_sort/imgs/merge_train/merge_train_ex_5.png,materials/merge_sort/imgs/merge_train/merge_train_ex_5_3_correct.png,materials/merge_sort/imgs/merge_train/merge_train_ex_5_3_wrong.png,,,,,,,,,,,,,,,,,,,,,,,,,,,,,,,,,,,,,,,,,,,,,,,,,,,,,,,,,,,,,,,
,,,,,,,,,,,,,,,,,,,,,,,,,,,,,,,,,,,,,,,,,,,,,,,,,,,,,,,,,,,,,,,jl08,001,2021-10-09_10h34.42.736,seq_teaching_exp_inverse,2021.2.3,Win32,59.95922773,,,,,,,,,,,,,,,,,,,,,,,,,,,,,,,,,,,materials/merge_sort/imgs/merge_test/merge_test_ex_1.png,,,-0.00390625,-0.376302083,1,0,0,9.799,E,B,"C,A,D,E,B",0.399739583,-0.328125,1,0,0,"[""1"",""2"",""5"",""3"",""4""]","[""'C'"",""'A'"",""'B'"",""'D'"",""'E'""]",4,"[[""C"",""D""],[""A"",""D""],[""B"",""D""],[""B"",""E""]]",0.5117,38.9904,0,0,0,0,1,,,,,,,,,,,,,,,,,,,,,,,,,,,,,,,,,,,,,,
,,,,,,,,,,,,,,,,,,,,,,,,,,,,,,,,,,,,,,,,,,,,,,,,,,,,,,,,,,,,,,,jl08,001,2021-10-09_10h34.42.736,seq_teaching_exp_inverse,2021.2.3,Win32,59.95922773,,,,,,,,,,,,,,,,,,,,,,,,,,,,,,,,,,,materials/merge_sort/imgs/merge_test/merge_test_ex_2.png,,,,,,,,,E,A,"D,B,E,A,C",-0.4453125,-0.296875,0,0,0,"[""3"",""4"",""5"",""1"",""2""]","[""'B'"",""'A'"",""'C'"",""'D'"",""'E'""]",4,"[[""D"",""A""],[""B"",""A""],[""B"",""D""],[""A"",""E""]]",0.5032,89.9951,0,1,1,1,1,,,,,,,,,,,,,,,,,,,,,,,,,,,,,,,,,,,,,,
,,,,,,,,,,,,,,,,,,,,,,,,,,,,,,,,,,,,,,,,,,,,,,,,,,,,,,,,,,,,,,,jl08,001,2021-10-09_10h34.42.736,seq_teaching_exp_inverse,2021.2.3,Win32,59.95922773,,,,,,,,,,,,,,,,,,,,,,,,,,,,,,,,,,,materials/merge_sort/imgs/merge_test/merge_test_ex_3.png,,,,,,,,,E,C,"F,D,A,E,C,B",0.509114583,-0.364583333,1,0,0,"[""3"",""5"",""6"",""1"",""2"",""4""]","[""'A'"",""'C'"",""'B'"",""'F'"",""'D'"",""'E'""]",4,"[[""A"",""F""],[""A"",""D""],[""A"",""E""],[""C"",""E""]]",0.5092,67.6499,0,2,2,2,1,,,,,,,,,,,,,,,,,,,,,,,,,,,,,,,,,,,,,,
,,,,,,,,,,,,,,,,,,,,,,,,,,,,,,,,,,,,,,,,,,,,,,,,,,,,,,,,,,,,,,,jl08,001,2021-10-09_10h34.42.736,seq_teaching_exp_inverse,2021.2.3,Win32,59.95922773,,,,,,,,,,,,,,,,,,,,,,,,,,,,,,,,,,,materials/merge_sort/imgs/merge_test/merge_test_ex_4.png,,,,,,,,,F,A,"E,D,B,G,C,F,A",0.553385417,-0.375,1,0,0,"[""2"",""3"",""5"",""7"",""1"",""4"",""6""]","[""'D'"",""'B'"",""'C'"",""'A'"",""'E'"",""'G'"",""'F'""]",6,"[[""D"",""E""],[""D"",""G""],[""B"",""G""],[""C"",""G""],[""C"",""F""],[""A"",""F""]]",0.5092,60.1135,0,3,3,3,1,,,,,,,,,,,,,,,,,,,,,,,,,,,,,,,,,,,,,,
,,,,,,,,,,,,,,,,,,,,,,,,,,,,,,,,,,,,,,,,,,,,,,,,,,,,,,,,,,,,,,,jl08,001,2021-10-09_10h34.42.736,seq_teaching_exp_inverse,2021.2.3,Win32,59.95922773,,,,,,,,,,,,,,,,,,,,,,,,,,,,,,,,,,,materials/merge_sort/imgs/merge_test/merge_test_ex_5.png,,,,,,,,,F,D,"C,E,G,A,B,D,F",0.53515625,-0.326822917,1,0,0,"[""1"",""4"",""5"",""6"",""2"",""3"",""7""]","[""'C'"",""'A'"",""'B'"",""'D'"",""'E'"",""'G'"",""'F'""]",7,"[[""C"",""E""],[""A"",""E""],[""A"",""G""],[""A"",""F""],[""B"",""F""],[""D"",""F""],[""D"",""F""]]",0.5089,46.5911,0,4,4,4,1,,,,,,,,,,,,,,,,,,,,,,,,,,,,,,,,,,,,,,
,,,,,,,,,,,,,,,,,,,,,,,,,,,,,,,,,,,,,,,,,,,,,,,,,,,,,,,,,,,materials/merge_sort/imgs/fruits/melon,,,,jl08,001,2021-10-09_10h34.42.736,seq_teaching_exp_inverse,2021.2.3,Win32,59.95922773,,,,,,,,,,,,,,,,,,,,,,,,,,,,,,,,,,,,,,,,,,,,,,,,,,,,,,,,,,,,,,,0.069010417,-0.395833333,1,0,0,47.1715,D,F,"D,F,B,A,C,E",0.5,-0.359375,1,0,0,"[""6"",""3"",""5"",""4"",""2"",""1""]","[""'E'"",""'B'"",""'C'"",""'A'"",""'F'"",""'D'""]","[[""2"",-0.2109375,0.28515625],[""2"",-0.23307291666666666,0.15364583333333334],[""2"",-0.23307291666666666,0.15234375],[""1"",-0.19140625,0.19010416666666666],[""1"",-0.13802083333333334,0.15364583333333334],[""1"",-0.14322916666666666,0.15364583333333334],[""1"",-0.14583333333333334,0.15364583333333334],[""1"",-0.15234375,0.140625],[""1"",-0.1640625,0.14192708333333334],[""1"",-0.1640625,0.14583333333333334],[""1"",-0.17057291666666666,0.1640625],[""1"",-0.17057291666666666,0.1796875],[""1"",-0.16666666666666666,0.15104166666666666],[""3"",-0.12760416666666666,0.1640625],[""3"",-0.12239583333333333,0.13932291666666666],[""1"",-0.07552083333333333,0.15625],[""1"",-0.0546875,0.15625],[""1"",-0.0546875,0.1484375],[""3"",-0.16015625,0.16015625],[""1"",-0.05859375,0.15755208333333334],[""1"",-0.08333333333333333,0.15885416666666666],[""1"",-0.08984375,0.15885416666666666],[""2"",-0.2513020833333333,0.17317708333333334],[""2"",-0.26953125,0.16666666666666666],[""4"",-0.13671875,0.265625],[""4"",-0.21354166666666666,0.1875],[""4"",-0.20833333333333334,0.17317708333333334],[""4"",-0.20833333333333334,0.171875],[""1"",-0.09505208333333333,0.16927083333333334],[""4"",-0.19270833333333334,0.14713541666666666],[""4"",-0.17708333333333334,0.15885416666666666],[""4"",-0.1875,0.15885416666666666],[""4"",-0.19140625,0.15885416666666666],[""3"",-0.14322916666666666,0.16276041666666666],[""3"",-0.13802083333333334,0.16666666666666666],[""1"",-0.0859375,0.16927083333333334],[""1"",-0.08203125,0.16536458333333334],[""5"",-0.055989583333333336,0.32421875],[""5"",-0.09244791666666667,0.3138020833333333],[""5"",-0.1015625,0.3177083333333333],[""5"",-0.23958333333333334,0.24479166666666666],[""5"",-0.3151041666666667,0.19921875],[""5"",-0.3190104166666667,0.171875],[""2"",-0.2955729166666667,0.20052083333333334],[""6"",-0.059895833333333336,0.2864583333333333],[""2"",-0.33203125,0.1875],[""2"",-0.23958333333333334,0.18489583333333334],[""2"",-0.2565104166666667,0.17708333333333334],[""6"",-0.07552083333333333,0.28515625],[""2"",-0.3307291666666667,0.1796875],[""2"",-0.24348958333333334,0.1796875],[""2"",-0.24609375,0.17578125],[""2"",-0.24869791666666666,0.17578125],[""6"",-0.13802083333333334,0.2565104166666667],[""6"",-0.20572916666666666,0.21875],[""6"",-0.24609375,0.17578125],[""6"",-0.3138020833333333,0.1640625],[""6"",-0.3463541666666667,0.16927083333333334],[""6"",-0.3567708333333333,0.17057291666666666],[""6"",-0.359375,0.17057291666666666]]","[[""E"",""B""],[""C"",""B""],[""C"",""E""],[""A"",""C""],[""A"",""B""],[""A"",""F""],[""B"",""F""],[""A"",""D""],[""B"",""D""],[""F"",""D""]]",10,0.5041,111.3375,0,0,0,0,1,,,,,,,,,,,,
,,,,,,,,,,,,,,,,,,,,,,,,,,,,,,,,,,,,,,,,,,,,,,,,,,,,,,,,,,,materials/merge_sort/imgs/fruits/banana,,,,jl08,001,2021-10-09_10h34.42.736,seq_teaching_exp_inverse,2021.2.3,Win32,59.95922773,,,,,,,,,,,,,,,,,,,,,,,,,,,,,,,,,,,,,,,,,,,,,,,,,,,,,,,,,,,,,,,,,,,,,E,A,"B,F,E,A,C,D",0.506510417,-0.348958333,1,0,0,"[""4"",""6"",""5"",""2"",""3"",""1""]","[""'A'"",""'D'"",""'C'"",""'B'"",""'F'"",""'E'""]","[[""1"",-0.25,0.3033854166666667],[""1"",-0.2864583333333333,0.18098958333333334],[""1"",-0.2864583333333333,0.1796875],[""2"",-0.21354166666666666,0.22005208333333334],[""2"",-0.18619791666666666,0.18489583333333334],[""2"",-0.18619791666666666,0.1796875],[""2"",-0.08333333333333333,0.17317708333333334],[""1"",-0.26953125,0.17317708333333334],[""1"",-0.26953125,0.17057291666666666],[""1"",-0.12760416666666666,0.16015625],[""1"",-0.14583333333333334,0.16015625],[""1"",-0.14713541666666666,0.1640625],[""1"",-0.14322916666666666,0.16666666666666666],[""1"",-0.15364583333333334,0.16796875],[""1"",-0.15755208333333334,0.16796875],[""1"",-0.18359375,0.16796875],[""1"",-0.19791666666666666,0.16536458333333334],[""3"",-0.1484375,0.3098958333333333],[""3"",-0.15364583333333334,0.21354166666666666],[""3"",-0.14973958333333334,0.16796875],[""3"",-0.14322916666666666,0.16666666666666666],[""4"",-0.10026041666666667,0.2981770833333333],[""4"",-0.18489583333333334,0.18619791666666666],[""4"",-0.23697916666666666,0.17317708333333334],[""4"",-0.2421875,0.17057291666666666],[""4"",-0.2643229166666667,0.17447916666666666],[""4"",-0.28515625,0.16666666666666666],[""5"",-0.061197916666666664,0.29296875],[""5"",-0.22526041666666666,0.18098958333333334],[""5"",-0.23046875,0.17578125],[""5"",-0.23697916666666666,0.16796875],[""5"",-0.23958333333333334,0.16666666666666666],[""1"",-0.19791666666666666,0.16796875],[""1"",-0.18880208333333334,0.17057291666666666],[""1"",-0.17838541666666666,0.16927083333333334],[""1"",-0.1875,0.15755208333333334],[""1"",-0.18359375,0.18489583333333334],[""1"",-0.19140625,0.1796875],[""1"",-0.1875,0.17578125],[""2"",-0.10026041666666667,0.18489583333333334],[""2"",-0.07291666666666667,0.18489583333333334],[""3"",-0.12109375,0.18229166666666666],[""1"",-0.17317708333333334,0.18098958333333334],[""1"",-0.16015625,0.18098958333333334],[""6"",-0.0625,0.2630208333333333],[""6"",-0.20703125,0.15755208333333334],[""6"",-0.19921875,0.17057291666666666],[""6"",-0.19661458333333334,0.1796875]]","[[""A"",""D""],[""C"",""D""],[""C"",""A""],[""C"",""B""],[""A"",""B""],[""C"",""F""],[""A"",""F""],[""B"",""F""],[""E"",""A""],[""F"",""E""],[""A"",""E""]]",11,0.5096,123.8745,0,1,1,1,1,,,,,,,,,,,,
,,,,,,,,,,,,,,,,,,,,,,,,,,,,,,,,,,,,,,,,,,,,,,,,,,,,,,,,,,,materials/merge_sort/imgs/fruits/apple,,,,jl08,001,2021-10-09_10h34.42.736,seq_teaching_exp_inverse,2021.2.3,Win32,59.95922773,,,,,,,,,,,,,,,,,,,,,,,,,,,,,,,,,,,,,,,,,,,,,,,,,,,,,,,,,,,,,,,,,,,,,C,G,"G,C,E,A,F,D,B",0.5,-0.364583333,1,0,0,"[""7"",""5"",""3"",""6"",""1"",""4"",""2""]","[""'B'"",""'F'"",""'E'"",""'D'"",""'G'"",""'A'"",""'C'""]","[[""2"",-0.19921875,0.13020833333333334],[""2"",-0.21614583333333334,0.09895833333333333],[""1"",-0.16927083333333334,0.18489583333333334],[""1"",-0.09895833333333333,0.10286458333333333],[""1"",-0.09765625,0.10286458333333333],[""3"",-0.15234375,0.2994791666666667],[""3"",-0.18098958333333334,0.16927083333333334],[""3"",-0.16536458333333334,0.10026041666666667],[""3"",-0.16536458333333334,0.09765625],[""3"",-0.21484375,0.08072916666666667],[""3"",-0.2786458333333333,0.0859375],[""3"",-0.28515625,0.09505208333333333],[""3"",-0.2825520833333333,0.09895833333333333],[""4"",-0.10026041666666667,0.3033854166666667],[""4"",-0.14192708333333334,0.11588541666666667],[""4"",-0.14322916666666666,0.1015625],[""4"",-0.14713541666666666,0.09895833333333333],[""5"",-0.057291666666666664,0.3177083333333333],[""5"",-0.11067708333333333,0.26953125],[""5"",-0.12109375,0.2760416666666667],[""5"",-0.2669270833333333,0.16796875],[""5"",-0.32421875,0.12630208333333334],[""5"",-0.3294270833333333,0.1015625],[""5"",-0.3307291666666667,0.09635416666666667],[""6"",-0.15625,0.20442708333333334],[""6"",-0.20442708333333334,0.140625],[""6"",-0.24869791666666666,0.10416666666666667],[""6"",-0.24869791666666666,0.10026041666666667],[""6"",-0.2526041666666667,0.09635416666666667],[""6"",-0.24869791666666666,0.09895833333333333],[""5"",-0.375,0.09244791666666667],[""7"",-0.016927083333333332,0.2513020833333333],[""3"",-0.3658854166666667,0.0703125],[""3"",-0.3385416666666667,0.0859375],[""3"",-0.2981770833333333,0.09635416666666667],[""3"",-0.2734375,0.10546875],[""7"",-0.037760416666666664,0.24479166666666666],[""7"",-0.08984375,0.23046875],[""3"",-0.2747395833333333,0.15364583333333334],[""3"",-0.3059895833333333,0.1015625],[""3"",-0.29296875,0.08984375],[""3"",-0.2890625,0.09114583333333333],[""7"",-0.12630208333333334,0.21744791666666666],[""7"",-0.3125,0.14973958333333334],[""7"",-0.3294270833333333,0.09375],[""7"",-0.3307291666666667,0.0859375]]","[[""B"",""F""],[""B"",""E""],[""F"",""E""],[""F"",""D""],[""B"",""D""],[""G"",""D""],[""G"",""F""],[""G"",""E""],[""F"",""A""],[""E"",""A""],[""F"",""C""],[""E"",""C""],[""G"",""C""]]",13,0.5021,121.5235,0,2,2,2,1,,,,,,,,,,,,
,,,,,,,,,,,,,,,,,,,,,,,,,,,,,,,,,,,,,,,,,,,,,,,,,,,,,,,,,,,materials/merge_sort/imgs/fruits/banana,,,,jl08,001,2021-10-09_10h34.42.736,seq_teaching_exp_inverse,2021.2.3,Win32,59.95922773,,,,,,,,,,,,,,,,,,,,,,,,,,,,,,,,,,,,,,,,,,,,,,,,,,,,,,,,,,,,,,,,,,,,,F,G,"F,G,C,E,B,A,D",0.463541667,-0.313802083,1,0,0,"[""4"",""7"",""2"",""6"",""3"",""5"",""1""]","[""'E'"",""'D'"",""'G'"",""'A'"",""'C'"",""'B'"",""'F'""]","[[""2"",-0.11848958333333333,0.19270833333333334],[""2"",-0.09114583333333333,0.16796875],[""1"",-0.21875,0.18619791666666666],[""1"",-0.19401041666666666,0.16276041666666666],[""1"",-0.19010416666666666,0.16666666666666666],[""3"",-0.2643229166666667,0.19270833333333334],[""3"",-0.2916666666666667,0.171875],[""4"",-0.13671875,0.20442708333333334],[""4"",-0.14322916666666666,0.1796875],[""4"",-0.14192708333333334,0.17447916666666666],[""4"",-0.14192708333333334,0.16145833333333334],[""4"",-0.14192708333333334,0.16015625],[""5"",-0.0546875,0.3072916666666667],[""5"",-0.10546875,0.28125],[""5"",-0.20182291666666666,0.21484375],[""5"",-0.24348958333333334,0.171875],[""5"",-0.24348958333333334,0.16666666666666666],[""6"",-0.0625,0.2838541666666667],[""6"",-0.06380208333333333,0.2825520833333333],[""6"",-0.13802083333333334,0.23567708333333334],[""6"",-0.15885416666666666,0.19791666666666666],[""6"",-0.16145833333333334,0.171875],[""6"",-0.1640625,0.16536458333333334],[""6"",-0.16536458333333334,0.16276041666666666],[""6"",-0.16276041666666666,0.16276041666666666],[""6"",-0.16276041666666666,0.1640625],[""7"",-0.033854166666666664,0.2890625],[""7"",-0.2109375,0.23697916666666666],[""7"",-0.3111979166666667,0.18489583333333334],[""7"",-0.3268229166666667,0.17317708333333334]]","[[""E"",""D""],[""E"",""G""],[""E"",""A""],[""D"",""A""],[""E"",""C""],[""G"",""C""],[""B"",""E""],[""B"",""A""],[""B"",""F""],[""E"",""F""],[""C"",""F""],[""G"",""F""]]",12,0.5031,95.3794,0,3,3,3,1,,,,,,,,,,,,
,,,,,,,,,,,,,,,,,,,,,,,,,,,,,,,,,,,,,,,,,,,,,,,,,,,,,,,,,,,materials/merge_sort/imgs/fruits/melon,,,,jl08,001,2021-10-09_10h34.42.736,seq_teaching_exp_inverse,2021.2.3,Win32,59.95922773,,,,,,,,,,,,,,,,,,,,,,,,,,,,,,,,,,,,,,,,,,,,,,,,,,,,,,,,,,,,,,,,,,,,,G,F,"G,F,D,B,E,C,H,A",0.51171875,-0.360677083,1,0,0,"[""8"",""7"",""6"",""5"",""4"",""3"",""2"",""1""]","[""'A'"",""'H'"",""'C'"",""'E'"",""'B'"",""'D'"",""'F'"",""'G'""]","[[""1"",-0.10416666666666667,0.14973958333333334],[""1"",-0.055989583333333336,0.14973958333333334],[""2"",-0.23307291666666666,0.19401041666666666],[""2"",-0.2265625,0.13411458333333334],[""2"",-0.20703125,0.14973958333333334],[""3"",-0.17578125,0.2721354166666667],[""3"",-0.2916666666666667,0.19140625],[""3"",-0.3125,0.15755208333333334],[""3"",-0.3138020833333333,0.15625],[""4"",-0.328125,0.22265625],[""4"",-0.3580729166666667,0.15625],[""4"",-0.3606770833333333,0.1484375],[""4"",-0.2903645833333333,0.15625],[""4"",-0.3020833333333333,0.15234375],[""4"",-0.3450520833333333,0.15104166666666666],[""4"",-0.359375,0.14713541666666666],[""4"",-0.3645833333333333,0.14713541666666666],[""3"",-0.28515625,0.15364583333333334],[""3"",-0.26171875,0.14322916666666666],[""2"",-0.16145833333333334,0.15885416666666666],[""2"",-0.15234375,0.1484375],[""1"",-0.024739583333333332,0.14322916666666666],[""1"",-0.009114583333333334,0.14192708333333334],[""2"",-0.14192708333333334,0.15494791666666666],[""2"",-0.10286458333333333,0.14973958333333334],[""3"",-0.2578125,0.15364583333333334],[""3"",-0.17317708333333334,0.1484375],[""4"",-0.3346354166666667,0.15364583333333334],[""4"",-0.3216145833333333,0.15364583333333334],[""4"",-0.2604166666666667,0.15234375],[""4"",-0.24739583333333334,0.15234375],[""5"",-0.07942708333333333,0.2942708333333333],[""4"",-0.2942708333333333,0.16536458333333334],[""4"",-0.25390625,0.15364583333333334],[""4"",-0.24479166666666666,0.15494791666666666],[""5"",-0.08203125,0.2916666666666667],[""5"",-0.2421875,0.23958333333333334],[""5"",-0.3098958333333333,0.15494791666666666],[""5"",-0.3098958333333333,0.14322916666666666],[""5"",-0.3033854166666667,0.15494791666666666],[""6"",-0.06770833333333333,0.28125],[""6"",-0.22786458333333334,0.23046875],[""6"",-0.33203125,0.17447916666666666],[""6"",-0.359375,0.140625],[""6"",-0.3580729166666667,0.14453125],[""6"",-0.3567708333333333,0.1484375],[""7"",0.03515625,0.29296875],[""7"",-0.19791666666666666,0.22265625],[""7"",-0.3359375,0.16666666666666666],[""7"",-0.3802083333333333,0.1484375],[""8"",0.07552083333333333,0.2955729166666667],[""8"",-0.11197916666666667,0.24869791666666666],[""8"",-0.12369791666666667,0.24739583333333334],[""8"",-0.22265625,0.25390625],[""8"",-0.2942708333333333,0.23828125],[""8"",-0.3502604166666667,0.21875],[""8"",-0.3815104166666667,0.21354166666666666],[""8"",-0.3815104166666667,0.21223958333333334]]","[[""A"",""H""],[""A"",""C""],[""H"",""C""],[""H"",""E""],[""C"",""E""],[""C"",""B""],[""E"",""B""],[""C"",""D""],[""B"",""D""],[""F"",""B""],[""F"",""D""],[""D"",""G""],[""F"",""G""]]",13,0.5045,143.117,0,4,4,4,1,,,,,,,,,,,,
,,,,,,,,,,,,,,,,,,,,,,,,,,,,,,,,,,,,,,,,,,,,,,,,,,,,,,,,,,,materials/merge_sort/imgs/fruits/apple,,,,jl08,001,2021-10-09_10h34.42.736,seq_teaching_exp_inverse,2021.2.3,Win32,59.95922773,,,,,,,,,,,,,,,,,,,,,,,,,,,,,,,,,,,,,,,,,,,,,,,,,,,,,,,,,,,,,,,,,,,,,A,D,"F,D,A,B,E,H,I,C,G,J",0.565104167,-0.361979167,1,0,0,"[""5"",""7"",""6"",""1"",""4"",""9"",""8"",""10"",""2"",""3""]","[""'E'"",""'I'"",""'H'"",""'F'"",""'B'"",""'G'"",""'C'"",""'J'"",""'D'"",""'A'""]","[[""2"",-0.20442708333333334,0.2682291666666667],[""2"",-0.18098958333333334,0.15364583333333334],[""2"",-0.17447916666666666,0.13541666666666666],[""2"",-0.171875,0.13541666666666666],[""2"",-0.15364583333333334,0.13020833333333334],[""2"",-0.040364583333333336,0.12109375],[""2"",-0.02734375,0.12890625],[""1"",-0.13932291666666666,0.11067708333333333],[""1"",-0.12760416666666666,0.12109375],[""3"",-0.08854166666666667,0.15755208333333334],[""3"",-0.08072916666666667,0.13151041666666666],[""3"",-0.0703125,0.12890625],[""4"",-0.15625,0.22786458333333334],[""4"",-0.17578125,0.16276041666666666],[""4"",-0.17838541666666666,0.13411458333333334],[""4"",-0.18359375,0.12239583333333333],[""4"",-0.18359375,0.12109375],[""4"",-0.18880208333333334,0.12890625],[""4"",-0.23307291666666666,0.12109375],[""5"",-0.17057291666666666,0.16145833333333334],[""5"",-0.19661458333333334,0.12630208333333334],[""5"",-0.18359375,0.12630208333333334],[""5"",-0.18229166666666666,0.12630208333333334],[""6"",0,0.3072916666666667],[""6"",0.02734375,0.14583333333333334],[""6"",0.029947916666666668,0.13411458333333334],[""6"",0.10416666666666667,0.13411458333333334],[""6"",0.12760416666666666,0.1328125],[""7"",0.05078125,0.24348958333333334],[""7"",0.044270833333333336,0.16015625],[""7"",0.040364583333333336,0.12109375],[""8"",0.10286458333333333,0.2747395833333333],[""8"",0.15234375,0.11588541666666667],[""8"",0.20572916666666666,0.11458333333333333],[""4"",-0.23958333333333334,0.12369791666666667],[""4"",-0.2721354166666667,0.12369791666666667],[""9"",0.061197916666666664,0.2513020833333333],[""5"",-0.20052083333333334,0.11979166666666667],[""9"",0.0078125,0.22786458333333334],[""5"",-0.14583333333333334,0.140625],[""5"",-0.15364583333333334,0.13411458333333334],[""5"",-0.17578125,0.12890625],[""9"",-0.02734375,0.23697916666666666],[""9"",-0.19791666666666666,0.13802083333333334],[""9"",-0.21875,0.12109375],[""10"",0.10286458333333333,0.25],[""1"",-0.12630208333333334,0.14973958333333334],[""1"",-0.12109375,0.15494791666666666],[""10"",0.05859375,0.22786458333333334],[""10"",-0.13671875,0.16927083333333334],[""10"",-0.15494791666666666,0.15494791666666666],[""10"",-0.171875,0.15104166666666666],[""10"",-0.17317708333333334,0.15104166666666666],[""10"",-0.1953125,0.14583333333333334],[""10"",-0.19791666666666666,0.13932291666666666]]","[[""E"",""I""],[""E"",""H""],[""I"",""H""],[""F"",""H""],[""F"",""E""],[""B"",""E""],[""B"",""F""],[""G"",""E""],[""G"",""H""],[""G"",""I""],[""G"",""C""],[""E"",""C""],[""H"",""C""],[""I"",""C""],[""H"",""J""],[""I"",""J""],[""C"",""J""],[""G"",""J""],[""D"",""C""],[""D"",""E""],[""D"",""B""],[""D"",""F""],[""I"",""A""],[""C"",""A""],[""G"",""A""],[""J"",""A""],[""E"",""A""],[""B"",""A""],[""D"",""A""]]",29,0.5027,209.4971,0,5,5,5,1,,,,,,,,,,,,
,,,,,,,,,,,,,,,,,,,,,,,,,,,,,,,,,,,,,,,,,,,,,,,,,,,,,,,,,,,,,,,jl08,001,2021-10-09_10h34.42.736,seq_teaching_exp_inverse,2021.2.3,Win32,59.95922773,,,,,,,,,,,,,,,,,,,,,,,,,,,,,,,,,,,,,,,,,,,,,,,,,,,,,,,,,,,,,,,,,,,,,,,,,,,,,,,,,,,,,,,,,"I learned about some years ago, i only remember two by name - bubble sort and quick sort. I have no idea if i correctly used one of them",0.002604167,-0.337239583,1,0,0,61.0297,-0.01953125,-0.1328125,1,0,0
