background_mouse.x,background_mouse.y,background_mouse.leftButton,background_mouse.midButton,background_mouse.rightButton,demographic_age,demographic_education,demographic_gender,background.tEnd,intro_mouse.x,intro_mouse.y,intro_mouse.leftButton,intro_mouse.midButton,intro_mouse.rightButton,intro.tEnd,hint_mouse.x,hint_mouse.y,hint_mouse.leftButton,hint_mouse.midButton,hint_mouse.rightButton,hint.tEnd,merge_intro_mouse.x,merge_intro_mouse.y,merge_intro_mouse.leftButton,merge_intro_mouse.midButton,merge_intro_mouse.rightButton,merge_intro.tEnd,merge_train_scale_right.text,merge_train_scale_left.text,merge_train_mouse.x,merge_train_mouse.y,merge_train_mouse.leftButton,merge_train_mouse.midButton,merge_train_mouse.rightButton,merge_train_mouse.clicked_name,merge_train.tStart,mc_order,merge_train_compareN,merge_train_labels,merge_train_input,merge_train_compare_records,merge_train_mouse_clicked,merge_train.tEnd,merge_expl_mouse.x,merge_expl_mouse.y,merge_expl_mouse.leftButton,merge_expl_mouse.midButton,merge_expl_mouse.rightButton,merge_expl.tStart,merge_expl.tEnd,TRAIN_1.thisRepN,TRAIN_1.thisTrialN,TRAIN_1.thisN,TRAIN_1.thisIndex,TRAIN_1.ran,img_path,input,encryption,mc_path_1,mc_path_2,participant,session,date,expName,psychopyVersion,OS,frameRate,merge_test_intro_mouse.x,merge_test_intro_mouse.y,merge_test_intro_mouse.leftButton,merge_test_intro_mouse.midButton,merge_test_intro_mouse.rightButton,merge_test_intro.tEnd,merge_test_scale_right.text,merge_test_scale_left.text,merge_test_res.text,merge_test_mouse.x,merge_test_mouse.y,merge_test_mouse.leftButton,merge_test_mouse.midButton,merge_test_mouse.rightButton,merge_test_input,merge_test_labels,merge_test_compareN,merge_test_compare_records,merge_test.tStart,merge_test.tEnd,TEST_1.thisRepN,TEST_1.thisTrialN,TEST_1.thisN,TEST_1.thisIndex,TEST_1.ran,sort_intro_mouse.x,sort_intro_mouse.y,sort_intro_mouse.leftButton,sort_intro_mouse.midButton,sort_intro_mouse.rightButton,sort_intro.tEnd,sort_train_scale_right.text,sort_train_scale_left.text,sort_train_res.text,sort_train_mouse.x,sort_train_mouse.y,sort_train_mouse.leftButton,sort_train_mouse.midButton,sort_train_mouse.rightButton,sort_train_input,sort_train_labels,sort_train_trace,sort_train_compareN,sort_train.tStart,sort_train.tEnd,sort_train_compare_records,sort_expl_scale_right.text,sort_expl_scale_left.text,sort_expl_mouse.x,sort_expl_mouse.y,sort_expl_mouse.leftButton,sort_expl_mouse.midButton,sort_expl_mouse.rightButton,sort_expl_trace,sort_expl_compareN,sort_expl_compare_records,sort_expl.tStart,sort_expl.tEnd,TRAIN_2.thisRepN,TRAIN_2.thisTrialN,TRAIN_2.thisN,TRAIN_2.thisIndex,TRAIN_2.ran,img_path_base,ms_compare,sort_test_intro_mouse.x,sort_test_intro_mouse.y,sort_test_intro_mouse.leftButton,sort_test_intro_mouse.midButton,sort_test_intro_mouse.rightButton,sort_test_intro.tEnd,sort_test_scale_right.text,sort_test_scale_left.text,sort_test_res.text,sort_test_mouse.x,sort_test_mouse.y,sort_test_mouse.leftButton,sort_test_mouse.midButton,sort_test_mouse.rightButton,sort_test_input,sort_test_labels,sort_test_trace,sort_test_compare_records,sort_test_compareN,sort_test.tStart,sort_test.tEnd,TEST_2.thisRepN,TEST_2.thisTrialN,TEST_2.thisN,TEST_2.thisIndex,TEST_2.ran,exp_check_res.text,exp_check_mouse.x,exp_check_mouse.y,exp_check_mouse.leftButton,exp_check_mouse.midButton,exp_check_mouse.rightButton,exp_check.tEnd,debrief_mouse.x,debrief_mouse.y,debrief_mouse.leftButton,debrief_mouse.midButton,debrief_mouse.rightButton
0.072222222,-0.412962963,1,0,0,_18_24,high_school_equivalent,female,31.881,-0.026851852,-0.394444444,1,0,0,14.706,-0.010185185,-0.40462963,1,0,0,8.058,0.041666667,-0.39537037,1,0,0,24.85,B,A,0.499074074,-0.406481481,1,0,0,merge_train_btn_2,0.5,"[0,1]",1,"[""'A'"",""'B'""]","[""4"",""2""]","[[""A"",""B""]]","[""merge_train_btn_2""]",53.683,0.348148148,-0.419444444,1,0,0,0.507,22.083,0,0,0,0,1,materials/merge_sort/imgs/merge_train/merge_train_ex_1.png,,,materials/merge_sort/imgs/merge_train/merge_train_ex_1_1_correct.png,materials/merge_sort/imgs/merge_train/merge_train_ex_1_1_wrong.png,jl05,001,2021-10-08_20h17.58.277,seq_teaching_exp,2021.2.3,Win32,62.42197253,,,,,,,,,,,,,,,,,,,,,,,,,,,,,,,,,,,,,,,,,,,,,,,,,,,,,,,,,,,,,,,,,,,,,,,,,,,,,,,,,,,,,,,,,,,,,,,,,,,,,,,
,,,,,,,,,,,,,,,,,,,,,,,,,,,D,B,0.589814815,-0.383333333,1,0,0,merge_train_btn_2,0.509,"[1,0]",4,"[""'A'"",""'B'"",""'D'"",""'C'""]","[""1"",""4"",""2"",""3""]","[[""A"",""B""],[""A"",""D""],[""A"",""C""],[""B"",""D""]]","[""merge_train_btn_2""]",54.176,0.393518519,-0.415740741,1,0,0,0.518,14.799,0,1,1,1,1,materials/merge_sort/imgs/merge_train/merge_train_ex_2.png,,,materials/merge_sort/imgs/merge_train/merge_train_ex_2_1_correct.png,materials/merge_sort/imgs/merge_train/merge_train_ex_2_1_wrong.png,jl05,001,2021-10-08_20h17.58.277,seq_teaching_exp,2021.2.3,Win32,62.42197253,,,,,,,,,,,,,,,,,,,,,,,,,,,,,,,,,,,,,,,,,,,,,,,,,,,,,,,,,,,,,,,,,,,,,,,,,,,,,,,,,,,,,,,,,,,,,,,,,,,,,,,
,,,,,,,,,,,,,,,,,,,,,,,,,,,B,C,0.512962963,-0.396296296,1,0,0,merge_train_btn_2,0.505,"[1,0]",2,"[""'A'"",""'B'"",""'D'"",""'C'""]","[""1"",""4"",""2"",""3""]","[[""D"",""B""],[""C"",""B""]]","[""merge_train_btn_2""]",21.689,0.372222222,-0.416666667,1,0,0,0.516,5.482,0,2,2,2,1,materials/merge_sort/imgs/merge_train/merge_train_ex_2.png,,,materials/merge_sort/imgs/merge_train/merge_train_ex_2_2_correct.png,materials/merge_sort/imgs/merge_train/merge_train_ex_2_2_wrong.png,jl05,001,2021-10-08_20h17.58.277,seq_teaching_exp,2021.2.3,Win32,62.42197253,,,,,,,,,,,,,,,,,,,,,,,,,,,,,,,,,,,,,,,,,,,,,,,,,,,,,,,,,,,,,,,,,,,,,,,,,,,,,,,,,,,,,,,,,,,,,,,,,,,,,,,
,,,,,,,,,,,,,,,,,,,,,,,,,,,E,B,0.475925926,-0.397222222,1,0,0,merge_train_btn_2,0.516,"[1,0]",1,"[""'C'"",""'D'"",""'B'"",""'A'"",""'G'"",""'E'"",""'F'""]","[""1"",""2"",""5"",""7"",""3"",""4"",""6""]","[[""B"",""E""]]","[""merge_train_btn_2""]",27.883,0.419444444,-0.414814815,1,0,0,0.509,3.826,0,3,3,3,1,materials/merge_sort/imgs/merge_train/merge_train_ex_5.png,,,materials/merge_sort/imgs/merge_train/merge_train_ex_5_1_correct.png,materials/merge_sort/imgs/merge_train/merge_train_ex_5_1_wrong.png,jl05,001,2021-10-08_20h17.58.277,seq_teaching_exp,2021.2.3,Win32,62.42197253,,,,,,,,,,,,,,,,,,,,,,,,,,,,,,,,,,,,,,,,,,,,,,,,,,,,,,,,,,,,,,,,,,,,,,,,,,,,,,,,,,,,,,,,,,,,,,,,,,,,,,,
,,,,,,,,,,,,,,,,,,,,,,,,,,,B,F,0.561111111,-0.374074074,1,0,0,merge_train_btn_2,0.509,"[0,1]",1,"[""'C'"",""'D'"",""'B'"",""'A'"",""'G'"",""'E'"",""'F'""]","[""1"",""2"",""5"",""7"",""3"",""4"",""6""]","[[""F"",""B""]]","[""merge_train_btn_2""]",9.876,0.362037037,-0.392592593,1,0,0,0.507,2.091,0,4,4,4,1,materials/merge_sort/imgs/merge_train/merge_train_ex_5.png,,,materials/merge_sort/imgs/merge_train/merge_train_ex_5_2_correct.png,materials/merge_sort/imgs/merge_train/merge_train_ex_5_2_wrong.png,jl05,001,2021-10-08_20h17.58.277,seq_teaching_exp,2021.2.3,Win32,62.42197253,,,,,,,,,,,,,,,,,,,,,,,,,,,,,,,,,,,,,,,,,,,,,,,,,,,,,,,,,,,,,,,,,,,,,,,,,,,,,,,,,,,,,,,,,,,,,,,,,,,,,,,
,,,,,,,,,,,,,,,,,,,,,,,,,,,F,A,0.441666667,-0.410185185,1,0,0,merge_train_btn_2,0.507,"[0,1]",1,"[""'C'"",""'D'"",""'B'"",""'A'"",""'G'"",""'E'"",""'F'""]","[""1"",""2"",""5"",""7"",""3"",""4"",""6""]","[[""A"",""F""]]","[""merge_train_btn_2""]",10.824,0.397222222,-0.411111111,1,0,0,0.51,2.476,0,5,5,5,1,materials/merge_sort/imgs/merge_train/merge_train_ex_5.png,,,materials/merge_sort/imgs/merge_train/merge_train_ex_5_3_correct.png,materials/merge_sort/imgs/merge_train/merge_train_ex_5_3_wrong.png,jl05,001,2021-10-08_20h17.58.277,seq_teaching_exp,2021.2.3,Win32,62.42197253,,,,,,,,,,,,,,,,,,,,,,,,,,,,,,,,,,,,,,,,,,,,,,,,,,,,,,,,,,,,,,,,,,,,,,,,,,,,,,,,,,,,,,,,,,,,,,,,,,,,,,,
,,,,,,,,,,,,,,,,,,,,,,,,,,,,,,,,,,,,,,,,,,,,,,,,,,,,,,,materials/merge_sort/imgs/merge_test/merge_test_ex_1.png,,,,,jl05,001,2021-10-08_20h17.58.277,seq_teaching_exp,2021.2.3,Win32,62.42197253,0.02037037,-0.411111111,1,0,0,20.949,E,,"C, A, D",-0.739814815,0.408333333,0,0,0,"[""1"",""2"",""5"",""3"",""4""]","[""'C'"",""'A'"",""'B'"",""'D'"",""'E'""]",10,"[[""A"",""B""],[""A"",""C""],[""C"",""B""],[""C"",""D""],[""C"",""E""],[""A"",""B""],[""A"",""D""],[""A"",""E""],[""B"",""D""],[""D"",""E""]]",0.501,90,0,0,0,0,1,,,,,,,,,,,,,,,,,,,,,,,,,,,,,,,,,,,,,,,,,,,,,,,,,,,,,,,,,,,,,,,,,,,,,,,,,,,,,,
,,,,,,,,,,,,,,,,,,,,,,,,,,,,,,,,,,,,,,,,,,,,,,,,,,,,,,,materials/merge_sort/imgs/merge_test/merge_test_ex_2.png,,,,,jl05,001,2021-10-08_20h17.58.277,seq_teaching_exp,2021.2.3,Win32,62.42197253,,,,,,,C,A,"D,E,B,A,C",0.468518519,-0.37037037,1,0,0,"[""3"",""4"",""5"",""1"",""2""]","[""'B'"",""'A'"",""'C'"",""'D'"",""'E'""]",8,"[[""B"",""A""],[""B"",""C""],[""B"",""D""],[""D"",""E""],[""A"",""B""],[""C"",""B""],[""E"",""B""],[""A"",""C""]]",0.503,73.086,0,1,1,1,1,,,,,,,,,,,,,,,,,,,,,,,,,,,,,,,,,,,,,,,,,,,,,,,,,,,,,,,,,,,,,,,,,,,,,,,,,,,,,,
,,,,,,,,,,,,,,,,,,,,,,,,,,,,,,,,,,,,,,,,,,,,,,,,,,,,,,,materials/merge_sort/imgs/merge_test/merge_test_ex_3.png,,,,,jl05,001,2021-10-08_20h17.58.277,seq_teaching_exp,2021.2.3,Win32,62.42197253,,,,,,,B,C,"F, D,A, C",-0.207407407,0.056481481,0,0,0,"[""3"",""5"",""6"",""1"",""2"",""4""]","[""'A'"",""'C'"",""'B'"",""'F'"",""'D'"",""'E'""]",12,"[[""A"",""C""],[""A"",""B""],[""A"",""F""],[""D"",""F""],[""E"",""F""],[""E"",""D""],[""A"",""D""],[""C"",""D""],[""C"",""A""],[""E"",""A""],[""B"",""A""],[""C"",""B""]]",0.514,89.999,0,2,2,2,1,,,,,,,,,,,,,,,,,,,,,,,,,,,,,,,,,,,,,,,,,,,,,,,,,,,,,,,,,,,,,,,,,,,,,,,,,,,,,,
,,,,,,,,,,,,,,,,,,,,,,,,,,,,,,,,,,,,,,,,,,,,,,,,,,,,,,,materials/merge_sort/imgs/merge_test/merge_test_ex_4.png,,,,,jl05,001,2021-10-08_20h17.58.277,seq_teaching_exp,2021.2.3,Win32,62.42197253,,,,,,,G,C,"E,D,B,G,C,A",-0.546296296,-0.407407407,0,0,0,"[""2"",""3"",""5"",""7"",""1"",""4"",""6""]","[""'D'"",""'B'"",""'C'"",""'A'"",""'E'"",""'G'"",""'F'""]",13,"[[""D"",""B""],[""D"",""C""],[""D"",""A""],[""D"",""E""],[""G"",""E""],[""F"",""E""],[""F"",""G""],[""A"",""G""],[""C"",""G""],[""B"",""G""],[""B"",""D""],[""C"",""A""],[""C"",""G""]]",0.515,89.998,0,3,3,3,1,,,,,,,,,,,,,,,,,,,,,,,,,,,,,,,,,,,,,,,,,,,,,,,,,,,,,,,,,,,,,,,,,,,,,,,,,,,,,,
,,,,,,,,,,,,,,,,,,,,,,,,,,,,,,,,,,,,,,,,,,,,,,,,,,,,,,,materials/merge_sort/imgs/merge_test/merge_test_ex_5.png,,,,,jl05,001,2021-10-08_20h17.58.277,seq_teaching_exp,2021.2.3,Win32,62.42197253,,,,,,,,,,-0.54537037,0.274074074,0,0,0,"[""1"",""4"",""5"",""6"",""2"",""3"",""7""]","[""'C'"",""'A'"",""'B'"",""'D'"",""'E'"",""'G'"",""'F'""]",9,"[[""C"",""A""],[""C"",""B""],[""C"",""D""],[""D"",""E""],[""C"",""A""],[""C"",""B""],[""C"",""D""],[""E"",""G""],[""E"",""F""]]",0.514,89.998,0,4,4,4,1,,,,,,,,,,,,,,,,,,,,,,,,,,,,,,,,,,,,,,,,,,,,,,,,,,,,,,,,,,,,,,,,,,,,,,,,,,,,,,
,,,,,,,,,,,,,,,,,,,,,,,,,,,,,,,,,,,,,,,,,,,,,,,,,,,,,,,,,,,,jl05,001,2021-10-08_20h17.58.277,seq_teaching_exp,2021.2.3,Win32,62.42197253,,,,,,,,,,,,,,,,,,,,,,,,,,-0.013888889,-0.399074074,1,0,0,32.515,B,A,"F,C,D,A,B,E",0.487962963,-0.346296296,1,0,0,"[""5"",""4"",""6"",""3"",""1"",""2""]","[""'A'"",""'D'"",""'B'"",""'C'"",""'E'"",""'F'""]","[[""1"",-0.2462962962962963,0.23981481481481481],[""1"",-0.24444444444444444,0.2351851851851852],[""2"",-0.2,0.30185185185185187],[""2"",-0.2712962962962963,0.13055555555555556],[""2"",-0.24537037037037038,0.1175925925925926],[""2"",-0.2388888888888889,0.11388888888888889],[""3"",-0.15462962962962962,0.2814814814814815],[""3"",-0.20277777777777778,0.1685185185185185],[""3"",-0.225,0.15648148148148147],[""3"",-0.24074074074074073,0.15925925925925927],[""3"",-0.24074074074074073,0.16018518518518518],[""3"",-0.24074074074074073,0.16111111111111112],[""3"",-0.16296296296296298,0.1361111111111111],[""3"",-0.1527777777777778,0.12314814814814815],[""3"",-0.15833333333333333,0.14537037037037037],[""3"",-0.1574074074074074,0.14537037037037037],[""3"",-0.14814814814814814,0.06574074074074074],[""1"",-0.20925925925925926,0.20462962962962963],[""1"",-0.1425925925925926,0.1398148148148148],[""1"",-0.15,0.15092592592592594],[""1"",-0.062037037037037036,0.14351851851851852],[""1"",-0.06018518518518518,0.10462962962962963],[""1"",-0.062037037037037036,0.11388888888888889],[""1"",-0.05740740740740741,0.11203703703703703],[""2"",-0.2518518518518518,0.1287037037037037],[""2"",-0.2537037037037037,0.12314814814814815],[""2"",-0.2490740740740741,0.11666666666666667],[""3"",-0.1537037037037037,0.11666666666666667],[""1"",-0.19166666666666668,0.11574074074074074],[""1"",-0.2037037037037037,0.11574074074074074],[""1"",-0.2037037037037037,0.1175925925925926],[""1"",-0.19907407407407407,0.11666666666666667],[""3"",-0.09537037037037037,0.12407407407407407],[""4"",-0.1175925925925926,0.2037037037037037],[""4"",-0.1527777777777778,0.10185185185185185],[""3"",0.019444444444444445,0.10648148148148148],[""3"",0.009259259259259259,0.10833333333333334],[""5"",-0.020370370370370372,0.24537037037037038],[""5"",-0.026851851851851852,0.25277777777777777],[""5"",0.049074074074074076,0.10555555555555556],[""5"",0.05185185185185185,0.10648148148148148],[""5"",0.05277777777777778,0.10740740740740741],[""6"",-0.05925925925925926,0.13703703703703704],[""6"",-0.05740740740740741,0.10185185185185185],[""6"",-0.05,0.10277777777777777],[""6"",-0.046296296296296294,0.1111111111111111],[""6"",-0.11296296296296296,0.10925925925925926],[""4"",-0.07037037037037037,0.11944444444444445],[""4"",-0.06574074074074074,0.11851851851851852],[""4"",-0.06481481481481481,0.11203703703703703],[""6"",-0.16666666666666666,0.1175925925925926],[""1"",-0.1398148148148148,0.1175925925925926],[""1"",-0.12222222222222222,0.1175925925925926],[""6"",-0.17592592592592593,0.1175925925925926],[""6"",-0.28888888888888886,0.11018518518518519],[""2"",-0.23981481481481481,0.1175925925925926],[""2"",-0.23796296296296296,0.11296296296296296],[""6"",-0.287962962962963,0.12129629629629629],[""6"",-0.2796296296296296,0.11851851851851852],[""6"",-0.2777777777777778,0.11296296296296296],[""1"",-0.12129629629629629,0.12037037037037036],[""1"",-0.14537037037037037,0.1175925925925926],[""1"",-0.17037037037037037,0.11388888888888889],[""1"",-0.1787037037037037,0.11388888888888889],[""4"",-0.19537037037037036,0.10185185185185185],[""4"",-0.20925925925925926,0.10925925925925926],[""4"",-0.2074074074074074,0.11018518518518519],[""4"",-0.14351851851851852,0.11666666666666667],[""4"",-0.15648148148148147,0.11481481481481481],[""4"",-0.2101851851851852,0.11481481481481481],[""1"",-0.1648148148148148,0.12129629629629629],[""1"",-0.12777777777777777,0.12037037037037036],[""2"",-0.19907407407407407,0.1111111111111111],[""2"",-0.23055555555555557,0.11018518518518519],[""2"",-0.23425925925925925,0.1111111111111111],[""2"",-0.2064814814814815,0.11574074074074074],[""2"",-0.20462962962962963,0.11018518518518519],[""2"",-0.2490740740740741,0.12037037037037036],[""2"",-0.2490740740740741,0.14166666666666666],[""2"",-0.2490740740740741,0.14814814814814814],[""4"",-0.2037037037037037,0.12407407407407407],[""4"",-0.20462962962962963,0.11666666666666667],[""4"",-0.20555555555555555,0.11574074074074074],[""2"",-0.2064814814814815,0.15925925925925927],[""2"",-0.1712962962962963,0.15648148148148147],[""4"",-0.22685185185185186,0.1259259259259259],[""4"",-0.22962962962962963,0.11481481481481481],[""2"",-0.17314814814814813,0.1638888888888889],[""2"",-0.1814814814814815,0.1175925925925926],[""2"",-0.17962962962962964,0.11296296296296296],[""1"",-0.12962962962962962,0.11851851851851852],[""1"",-0.12962962962962962,0.11574074074074074],[""1"",-0.13055555555555556,0.11574074074074074],[""3"",-0.05092592592592592,0.11388888888888889],[""3"",-0.075,0.11388888888888889],[""5"",-0.05925925925925926,0.1175925925925926],[""5"",-0.040740740740740744,0.10925925925925926],[""5"",-0.03148148148148148,0.11018518518518519]]",13,0.511,140.461,"[[""A"",""D""],[""B"",""D""],[""B"",""A""],[""B"",""C""],[""B"",""E""],[""B"",""F""],[""C"",""F""],[""A"",""F""],[""D"",""F""],[""D"",""A""],[""C"",""A""],[""C"",""D""],[""A"",""B""]]",,,0.458333333,-0.355555556,1,0,0,[],0,[],0.515,12.215,0,0,0,0,1,materials/merge_sort/imgs/fruits/apple,8,,,,,,,,,,,,,,,,,,,,,,,,,,,,,,,,,,,,,,
,,,,,,,,,,,,,,,,,,,,,,,,,,,,,,,,,,,,,,,,,,,,,,,,,,,,,,,,,,,,jl05,001,2021-10-08_20h17.58.277,seq_teaching_exp,2021.2.3,Win32,62.42197253,,,,,,,,,,,,,,,,,,,,,,,,,,,,,,,,B,G,"G,B,F,E,A,C,D",0.398148148,-0.362037037,1,0,0,"[""6"",""2"",""4"",""7"",""5"",""3"",""1""]","[""'C'"",""'B'"",""'E'"",""'D'"",""'A'"",""'F'"",""'G'""]","[[""2"",-0.23333333333333334,0.13333333333333333],[""2"",-0.28425925925925927,0.11481481481481481],[""2"",-0.2833333333333333,0.11481481481481481],[""1"",-0.17962962962962964,0.19166666666666668],[""1"",-0.11203703703703703,0.10185185185185185],[""1"",-0.10185185185185185,0.10555555555555556],[""1"",-0.10925925925925926,0.10185185185185185],[""1"",-0.11296296296296296,0.10462962962962963],[""1"",-0.11481481481481481,0.11666666666666667],[""3"",-0.17407407407407408,0.18888888888888888],[""3"",-0.19444444444444445,0.10740740740740741],[""3"",-0.19537037037037036,0.11388888888888889],[""3"",-0.19722222222222222,0.11481481481481481],[""1"",-0.10833333333333334,0.11481481481481481],[""1"",0.0712962962962963,0.11481481481481481],[""3"",-0.18888888888888888,0.11666666666666667],[""3"",-0.09259259259259259,0.1111111111111111],[""3"",-0.08518518518518518,0.12037037037037036],[""3"",-0.09814814814814815,0.11666666666666667],[""3"",-0.1,0.11666666666666667],[""4"",-0.03888888888888889,0.2],[""4"",0.12962962962962962,0.14722222222222223],[""4"",0.1712962962962963,0.12314814814814815],[""4"",0.17962962962962964,0.11944444444444445],[""4"",0.19074074074074074,0.11944444444444445],[""4"",0.19814814814814816,0.12129629629629629],[""4"",0.19907407407407407,0.12129629629629629],[""5"",-0.025,0.1537037037037037],[""5"",-0.020370370370370372,0.11388888888888889],[""5"",-0.020370370370370372,0.11296296296296296],[""6"",-0.15833333333333333,0.20277777777777778],[""6"",-0.20833333333333334,0.10462962962962963],[""6"",-0.20277777777777778,0.11666666666666667]]",13,0.51,116.708,"[[""C"",""B""],[""E"",""B""],[""E"",""C""],[""D"",""C""],[""D"",""A""],[""C"",""A""],[""E"",""A""],[""F"",""D""],[""F"",""C""],[""F"",""A""],[""F"",""E""],[""F"",""B""],[""G"",""B""]]",,,0.52962963,-0.337962963,1,0,0,[],0,[],0.51,7.625,0,1,1,1,1,materials/merge_sort/imgs/fruits/banana,12,,,,,,,,,,,,,,,,,,,,,,,,,,,,,,,,,,,,,,
,,,,,,,,,,,,,,,,,,,,,,,,,,,,,,,,,,,,,,,,,,,,,,,,,,,,,,,,,,,,jl05,001,2021-10-08_20h17.58.277,seq_teaching_exp,2021.2.3,Win32,62.42197253,,,,,,,,,,,,,,,,,,,,,,,,,,,,,,,,H,C,"C,H,D,F,E,A,B,G",0.532407407,-0.346296296,1,0,0,"[""7"",""6"",""5"",""8"",""4"",""3"",""2"",""1""]","[""'B'"",""'A'"",""'E'"",""'G'"",""'F'"",""'D'"",""'H'"",""'C'""]","[[""1"",-0.2657407407407407,0.29814814814814816],[""1"",-0.24166666666666667,0.24166666666666667],[""1"",-0.014814814814814815,0.07777777777777778],[""1"",0.06018518518518518,0.09351851851851851],[""2"",-0.26666666666666666,0.25555555555555554],[""2"",-0.32037037037037036,0.10833333333333334],[""2"",-0.3212962962962963,0.08425925925925926],[""2"",-0.32314814814814813,0.08888888888888889],[""2"",-0.2361111111111111,0.10092592592592593],[""2"",-0.14907407407407408,0.09259259259259259],[""3"",-0.15648148148148147,0.30185185185185187],[""3"",-0.325,0.06944444444444445],[""3"",-0.30925925925925923,0.08333333333333333],[""3"",-0.30833333333333335,0.09814814814814815],[""3"",-0.31296296296296294,0.09907407407407408],[""4"",-0.06666666666666667,0.2796296296296296],[""4"",0.03888888888888889,0.16203703703703703],[""4"",0.15,0.09444444444444444],[""4"",0.1824074074074074,0.10555555555555556],[""4"",0.18333333333333332,0.10648148148148148],[""4"",0.18333333333333332,0.10740740740740741],[""5"",-0.10833333333333334,0.26666666666666666],[""3"",-0.33796296296296297,0.13055555555555556],[""3"",-0.2824074074074074,0.09814814814814815],[""3"",-0.26666666666666666,0.08796296296296297],[""5"",-0.2657407407407407,0.1638888888888889],[""5"",-0.22592592592592592,0.19074074074074074],[""5"",-0.2833333333333333,0.16111111111111112],[""5"",-0.30833333333333335,0.1527777777777778],[""5"",-0.36018518518518516,0.08425925925925926],[""5"",-0.33240740740740743,0.08796296296296297],[""5"",-0.33240740740740743,0.08888888888888889],[""6"",-0.13333333333333333,0.25277777777777777],[""5"",-0.34629629629629627,0.11481481481481481],[""6"",-0.19537037037037036,0.22037037037037038],[""5"",-0.35,0.1175925925925926],[""5"",-0.3055555555555556,0.13055555555555556],[""5"",-0.2935185185185185,0.1638888888888889],[""5"",-0.2953703703703704,0.1675925925925926],[""6"",-0.20555555555555555,0.19814814814814816],[""6"",-0.3685185185185185,0.06481481481481481],[""6"",-0.3648148148148148,0.08888888888888889],[""6"",-0.3574074074074074,0.09444444444444444],[""7"",0,0.24166666666666667],[""7"",-0.15462962962962962,-0.012037037037037037],[""7"",-0.38425925925925924,-0.020370370370370372],[""7"",-0.38425925925925924,-0.005555555555555556]]",14,0.515,128.249,"[[""B"",""A""],[""B"",""E""],[""A"",""E""],[""B"",""G""],[""F"",""G""],[""F"",""B""],[""F"",""A""],[""F"",""E""],[""G"",""D""],[""A"",""D""],[""F"",""D""],[""A"",""H""],[""D"",""H""],[""C"",""H""]]",,,0.539814815,-0.334259259,1,0,0,[],0,[],0.515,12.531,0,2,2,2,1,materials/merge_sort/imgs/fruits/apple,13,,,,,,,,,,,,,,,,,,,,,,,,,,,,,,,,,,,,,,
,,,,,,,,,,,,,,,,,,,,,,,,,,,,,,,,,,,,,,,,,,,,,,,,,,,,,,,,,,,,jl05,001,2021-10-08_20h17.58.277,seq_teaching_exp,2021.2.3,Win32,62.42197253,,,,,,,,,,,,,,,,,,,,,,,,,,,,,,,,E,A,"D,I,J,E,A,C,B,G,F,H",0.464814815,-0.349074074,1,0,0,"[""8"",""6"",""4"",""3"",""2"",""10"",""9"",""7"",""1"",""5""]","[""'G'"",""'C'"",""'E'"",""'J'"",""'I'"",""'H'"",""'F'"",""'B'"",""'D'"",""'A'""]","[[""1"",-0.22685185185185186,0.23796296296296296],[""1"",0.02962962962962963,0.10185185185185185],[""1"",0.06296296296296296,0.11574074074074074],[""1"",0.18333333333333332,0.125],[""1"",0.18055555555555555,0.12407407407407407],[""2"",-0.19722222222222222,0.2972222222222222],[""2"",-0.30092592592592593,0.11944444444444445],[""2"",-0.2953703703703704,0.10092592592592593],[""2"",-0.30648148148148147,0.10092592592592593],[""2"",-0.10277777777777777,0.11481481481481481],[""2"",-0.06574074074074074,0.12037037037037036],[""2"",-0.08611111111111111,0.11481481481481481],[""3"",-0.2361111111111111,0.22407407407407406],[""3"",-0.3314814814814815,0.09166666666666666],[""3"",-0.325,0.10462962962962963],[""3"",-0.32222222222222224,0.10648148148148148],[""3"",-0.2851851851851852,0.10648148148148148],[""3"",-0.23425925925925925,0.10648148148148148],[""4"",-0.14907407407407408,0.2777777777777778],[""4"",-0.31574074074074077,0.11851851851851852],[""4"",-0.3388888888888889,0.11296296296296296],[""4"",-0.3416666666666667,0.1111111111111111],[""3"",-0.22592592592592592,0.1111111111111111],[""3"",-0.1787037037037037,0.11388888888888889],[""3"",-0.17777777777777778,0.11481481481481481],[""4"",-0.3296296296296296,0.1111111111111111],[""4"",-0.26296296296296295,0.11203703703703703],[""5"",-0.06574074074074074,0.3074074074074074],[""5"",-0.12314814814814815,0.2898148148148148],[""5"",-0.2574074074074074,0.2712962962962963],[""5"",-0.35648148148148145,0.12037037037037036],[""5"",-0.3527777777777778,0.1175925925925926],[""5"",-0.3509259259259259,0.11481481481481481],[""5"",-0.3490740740740741,0.11018518518518519],[""6"",0.21574074074074073,0.09166666666666666],[""6"",0.2898148148148148,0.1111111111111111],[""6"",0.26944444444444443,0.12407407407407407],[""6"",0.2675925925925926,0.12685185185185185],[""1"",0.15462962962962962,0.12407407407407407],[""1"",0.1398148148148148,0.11944444444444445],[""7"",0.12685185185185185,0.21203703703703702],[""7"",0.2111111111111111,0.13703703703703704],[""7"",0.20833333333333334,0.12037037037037036],[""7"",0.2037037037037037,0.125],[""7"",0.20462962962962963,0.1259259259259259],[""8"",0.10092592592592593,0.30185185185185187],[""8"",0.012962962962962963,0.1537037037037037],[""8"",0.03611111111111111,0.11296296296296296],[""8"",0.040740740740740744,0.11666666666666667],[""5"",-0.30925925925925923,0.12129629629629629],[""5"",-0.30648148148148147,0.12222222222222222],[""9"",0.11296296296296296,0.28888888888888886],[""5"",-0.2824074074074074,0.15648148148148147],[""9"",0.12037037037037036,0.29444444444444445],[""9"",0.075,0.2657407407407407],[""9"",0.08425925925925926,0.10925925925925926],[""9"",-0.1638888888888889,-0.012962962962962963],[""9"",-0.18703703703703703,0.044444444444444446],[""9"",-0.21666666666666667,0.027777777777777776],[""9"",-0.22037037037037038,0.027777777777777776],[""9"",-0.3490740740740741,0.03518518518518519],[""9"",-0.35648148148148145,0.09259259259259259],[""10"",0.1638888888888889,0.2601851851851852],[""10"",0.12962962962962962,0.2462962962962963],[""10"",-0.06018518518518518,0.18611111111111112],[""10"",-0.13518518518518519,0.1935185185185185],[""10"",-0.12407407407407407,0.19444444444444445],[""10"",-0.12314814814814815,0.1925925925925926]]",21,0.515,189.549,"[[""G"",""C""],[""E"",""C""],[""J"",""C""],[""J"",""E""],[""I"",""C""],[""I"",""J""],[""H"",""C""],[""H"",""G""],[""F"",""C""],[""F"",""H""],[""F"",""G""],[""B"",""C""],[""B"",""H""],[""B"",""G""],[""B"",""D""],[""J"",""D""],[""D"",""I""],[""A"",""C""],[""A"",""D""],[""A"",""J""],[""A"",""E""]]",,,0.484259259,-0.35462963,1,0,0,[],0,[],0.506,5.773,0,3,3,3,1,materials/merge_sort/imgs/fruits/melon,21,,,,,,,,,,,,,,,,,,,,,,,,,,,,,,,,,,,,,,
,,,,,,,,,,,,,,,,,,,,,,,,,,,,,,,,,,,,,,,,,,,,,,,,,,,,,,,,,,,,jl05,001,2021-10-08_20h17.58.277,seq_teaching_exp,2021.2.3,Win32,62.42197253,,,,,,,,,,,,,,,,,,,,,,,,,,,,,,,,,,,,,,,,,,,,,,,,,,,,,,,,,,,,,,,,materials/merge_sort/imgs/fruits/melon,,-0.023148148,-0.393518519,1,0,0,12.399,F,D,"D,F,B,A,C,E",0.535185185,-0.332407407,1,0,0,"[""6"",""3"",""5"",""4"",""2"",""1""]","[""'E'"",""'B'"",""'C'"",""'A'"",""'F'"",""'D'""]","[[""1"",-0.24351851851851852,0.2037037037037037],[""1"",0.04259259259259259,0.09444444444444444],[""1"",0.09814814814814815,0.13055555555555556],[""1"",0.0962962962962963,0.13148148148148148],[""2"",-0.20462962962962963,0.30462962962962964],[""2"",-0.21388888888888888,0.13333333333333333],[""2"",-0.2518518518518518,0.12314814814814815],[""3"",-0.1259259259259259,0.2101851851851852],[""3"",-0.09166666666666666,0.11851851851851852],[""3"",-0.10277777777777777,0.12314814814814815],[""4"",-0.0962962962962963,0.30277777777777776],[""4"",-0.19907407407407407,0.10833333333333334],[""4"",-0.17962962962962964,0.12777777777777777],[""3"",-0.08888888888888889,0.12314814814814815],[""3"",-0.041666666666666664,0.12407407407407407],[""5"",-0.2212962962962963,0.22314814814814815],[""5"",-0.32222222222222224,0.1361111111111111],[""5"",-0.32685185185185184,0.12962962962962962]]","[[""E"",""B""],[""E"",""C""],[""B"",""C""],[""A"",""C""],[""A"",""B""],[""F"",""C""],[""F"",""B""],[""D"",""A""],[""D"",""F""]]",9,0.513,84.997,0,0,0,0,1,,,,,,,,,,,,
,,,,,,,,,,,,,,,,,,,,,,,,,,,,,,,,,,,,,,,,,,,,,,,,,,,,,,,,,,,,jl05,001,2021-10-08_20h17.58.277,seq_teaching_exp,2021.2.3,Win32,62.42197253,,,,,,,,,,,,,,,,,,,,,,,,,,,,,,,,,,,,,,,,,,,,,,,,,,,,,,,,,,,,,,,,materials/merge_sort/imgs/fruits/banana,,,,,,,,B,E,"E,B,F,A,C,D",0.425925926,-0.359259259,1,0,0,"[""4"",""6"",""5"",""2"",""3"",""1""]","[""'A'"",""'D'"",""'C'"",""'B'"",""'F'"",""'E'""]","[[""2"",-0.10833333333333334,0.2064814814814815],[""2"",-0.09074074074074075,0.18888888888888888],[""2"",0.020370370370370372,0.14722222222222223],[""1"",-0.27314814814814814,0.21666666666666667],[""1"",-0.30648148148148147,0.12962962962962962],[""1"",-0.30648148148148147,0.1287037037037037],[""3"",-0.14907407407407408,0.2824074074074074],[""3"",-0.15925925925925927,0.17222222222222222],[""3"",-0.15925925925925927,0.1398148148148148],[""3"",-0.16111111111111112,0.13703703703703704],[""4"",-0.1648148148148148,0.2898148148148148],[""4"",-0.1935185185185185,0.2833333333333333],[""4"",-0.2,0.2777777777777778],[""4"",-0.37592592592592594,0.15],[""4"",-0.36944444444444446,0.11851851851851852],[""4"",-0.3712962962962963,0.12962962962962962],[""5"",-0.05092592592592592,0.29814814814814816],[""5"",-0.3296296296296296,0.23703703703703705],[""5"",-0.3287037037037037,0.20833333333333334],[""5"",-0.3296296296296296,0.2074074074074074],[""3"",-0.07314814814814814,0.1287037037037037],[""3"",-0.07314814814814814,0.12962962962962962],[""1"",-0.30277777777777776,0.13240740740740742],[""1"",-0.14444444444444443,0.13518518518518519],[""1"",-0.14166666666666666,0.13518518518518519],[""5"",-0.29907407407407405,0.20925925925925926],[""5"",-0.20833333333333334,0.1925925925925926],[""5"",-0.1962962962962963,0.19166666666666668],[""4"",-0.3101851851851852,0.1388888888888889],[""4"",-0.26851851851851855,0.13425925925925927],[""6"",-0.2222222222222222,0.23148148148148148]]","[[""A"",""D""],[""A"",""C""],[""D"",""C""],[""B"",""C""],[""B"",""A""],[""F"",""C""],[""F"",""B""],[""F"",""A""],[""E"",""C""],[""E"",""B""]]",10,0.509,89.808,0,1,1,1,1,,,,,,,,,,,,
,,,,,,,,,,,,,,,,,,,,,,,,,,,,,,,,,,,,,,,,,,,,,,,,,,,,,,,,,,,,jl05,001,2021-10-08_20h17.58.277,seq_teaching_exp,2021.2.3,Win32,62.42197253,,,,,,,,,,,,,,,,,,,,,,,,,,,,,,,,,,,,,,,,,,,,,,,,,,,,,,,,,,,,,,,,materials/merge_sort/imgs/fruits/apple,,,,,,,,E,C,"G,C,E,A,F,D,B",0.550925926,-0.377777778,1,0,0,"[""7"",""5"",""3"",""6"",""1"",""4"",""2""]","[""'B'"",""'F'"",""'E'"",""'D'"",""'G'"",""'A'"",""'C'""]","[[""1"",-0.19074074074074074,0.18981481481481483],[""1"",0.046296296296296294,0.1259259259259259],[""1"",0.11203703703703703,0.13518518518518519],[""2"",-0.1685185185185185,0.1712962962962963],[""2"",-0.22037037037037038,0.1259259259259259],[""2"",-0.21851851851851853,0.12685185185185185],[""3"",-0.1537037037037037,0.2916666666666667],[""3"",-0.2824074074074074,0.1712962962962963],[""3"",-0.34629629629629627,0.11296296296296296],[""3"",-0.3592592592592593,0.11944444444444445],[""3"",-0.35833333333333334,0.11944444444444445],[""4"",-0.04814814814814815,0.18981481481481483],[""4"",-0.040740740740740744,0.13240740740740742],[""4"",-0.04537037037037037,0.13425925925925927],[""3"",-0.30462962962962964,0.125],[""3"",-0.2851851851851852,0.1287037037037037],[""5"",-0.08055555555555556,0.3148148148148148],[""5"",-0.3212962962962963,0.26851851851851855],[""5"",-0.362962962962963,0.1638888888888889],[""5"",-0.36574074074074076,0.12314814814814815],[""5"",-0.36574074074074076,0.1259259259259259],[""2"",-0.17777777777777778,0.12962962962962962],[""6"",-0.20185185185185187,0.22962962962962963],[""6"",-0.23703703703703705,0.1925925925925926],[""6"",-0.23148148148148148,0.18611111111111112],[""7"",0.010185185185185186,0.3055555555555556],[""7"",0.011111111111111112,0.30925925925925923],[""7"",-0.2324074074074074,0.275],[""7"",-0.3287037037037037,0.225],[""7"",-0.3287037037037037,0.21574074074074073]]","[[""B"",""F""],[""E"",""F""],[""D"",""F""],[""D"",""B""],[""G"",""D""],[""G"",""E""],[""A"",""D""],[""A"",""G""],[""A"",""F""],[""A"",""E""],[""C"",""F""],[""C"",""G""],[""C"",""A""],[""C"",""E""]]",14,0.501,99.417,0,2,2,2,1,,,,,,,,,,,,
,,,,,,,,,,,,,,,,,,,,,,,,,,,,,,,,,,,,,,,,,,,,,,,,,,,,,,,,,,,,jl05,001,2021-10-08_20h17.58.277,seq_teaching_exp,2021.2.3,Win32,62.42197253,,,,,,,,,,,,,,,,,,,,,,,,,,,,,,,,,,,,,,,,,,,,,,,,,,,,,,,,,,,,,,,,materials/merge_sort/imgs/fruits/banana,,,,,,,,G,F,"F,G,E,C,B,A,D",0.452777778,-0.347222222,1,0,0,"[""4"",""7"",""2"",""6"",""3"",""5"",""1""]","[""'E'"",""'D'"",""'G'"",""'A'"",""'C'"",""'B'"",""'F'""]","[[""2"",-0.004629629629629629,0.1537037037037037],[""2"",0.049074074074074076,0.14537037037037037],[""2"",0.06111111111111111,0.1425925925925926],[""1"",-0.25462962962962965,0.30185185185185187],[""1"",-0.2657407407407407,0.1388888888888889],[""1"",-0.25462962962962965,0.12685185185185185],[""1"",-0.2175925925925926,0.14074074074074075],[""3"",-0.19166666666666668,0.287962962962963],[""3"",-0.33611111111111114,0.18703703703703703],[""3"",-0.34814814814814815,0.1398148148148148],[""3"",-0.3527777777777778,0.14629629629629629],[""3"",-0.35185185185185186,0.14537037037037037],[""3"",-0.35185185185185186,0.14444444444444443],[""4"",-0.10185185185185185,0.2675925925925926],[""4"",-0.07962962962962963,0.1287037037037037],[""4"",-0.08148148148148149,0.14351851851851852],[""5"",-0.11574074074074074,0.23981481481481481],[""5"",-0.15185185185185185,0.19444444444444445],[""5"",-0.1537037037037037,0.1925925925925926],[""6"",-0.05555555555555555,0.26481481481481484],[""6"",-0.09351851851851851,0.21851851851851853],[""4"",-0.07222222222222222,0.14907407407407408],[""4"",-0.030555555555555555,0.1398148148148148],[""7"",0.019444444444444445,0.30462962962962964],[""7"",-0.06574074074074074,0.32592592592592595],[""7"",-0.19722222222222222,0.21851851851851853],[""7"",-0.2898148148148148,0.2064814814814815],[""7"",-0.3472222222222222,0.22685185185185186],[""7"",-0.3574074074074074,0.23055555555555557]]","[[""E"",""D""],[""E"",""G""],[""E"",""A""],[""D"",""A""],[""C"",""A""],[""C"",""G""],[""C"",""E""],[""B"",""A""],[""B"",""G""],[""B"",""E""],[""B"",""C""],[""F"",""B""],[""F"",""G""]]",13,0.515,91.264,0,3,3,3,1,,,,,,,,,,,,
,,,,,,,,,,,,,,,,,,,,,,,,,,,,,,,,,,,,,,,,,,,,,,,,,,,,,,,,,,,,jl05,001,2021-10-08_20h17.58.277,seq_teaching_exp,2021.2.3,Win32,62.42197253,,,,,,,,,,,,,,,,,,,,,,,,,,,,,,,,,,,,,,,,,,,,,,,,,,,,,,,,,,,,,,,,materials/merge_sort/imgs/fruits/melon,,,,,,,,F,G,"G,F,D,B,E,C,H,A",0.523148148,-0.369444444,1,0,0,"[""8"",""7"",""6"",""5"",""4"",""3"",""2"",""1""]","[""'A'"",""'H'"",""'C'"",""'E'"",""'B'"",""'D'"",""'F'"",""'G'""]","[[""1"",-0.2518518518518518,0.30833333333333335],[""1"",-0.05,0.12777777777777777],[""1"",0.08148148148148149,0.11944444444444445],[""2"",-0.21203703703703702,0.14444444444444443],[""2"",-0.22685185185185186,0.11851851851851852],[""2"",-0.22777777777777777,0.10648148148148148],[""3"",-0.1935185185185185,0.22037037037037038],[""3"",-0.287962962962963,0.12962962962962962],[""3"",-0.3277777777777778,0.11574074074074074],[""3"",-0.33611111111111114,0.1175925925925926],[""4"",-0.2222222222222222,0.29074074074074074],[""4"",-0.3,0.22592592592592592],[""4"",-0.3453703703703704,0.21388888888888888],[""4"",-0.35648148148148145,0.2111111111111111],[""4"",-0.36666666666666664,0.20185185185185187],[""4"",-0.37037037037037035,0.20185185185185187],[""2"",-0.20462962962962963,0.11481481481481481],[""2"",-0.13240740740740742,0.10833333333333334],[""2"",-0.12129629629629629,0.10740740740740741],[""3"",-0.3055555555555556,0.10925925925925926],[""3"",-0.27314814814814814,0.10648148148148148],[""4"",-0.3675925925925926,0.18703703703703703],[""4"",-0.3638888888888889,0.11481481481481481],[""4"",-0.3685185185185185,0.11296296296296296],[""2"",-0.06111111111111111,0.10092592592592593],[""3"",-0.23148148148148148,0.11018518518518519],[""3"",-0.17222222222222222,0.11018518518518519],[""4"",-0.27314814814814814,0.11574074074074074],[""4"",-0.2601851851851852,0.11018518518518519],[""5"",-0.07777777777777778,0.2972222222222222],[""5"",-0.36944444444444446,0.18333333333333332],[""5"",-0.36203703703703705,0.12037037037037036],[""6"",-0.004629629629629629,0.30277777777777776],[""6"",-0.032407407407407406,0.30277777777777776],[""6"",-0.014814814814814815,0.3138888888888889],[""6"",-0.23148148148148148,0.21296296296296297],[""6"",-0.3453703703703704,0.19907407407407407],[""6"",-0.37037037037037035,0.20925925925925926],[""6"",-0.3712962962962963,0.20925925925925926],[""1"",0.1037037037037037,0.11851851851851852],[""1"",0.28055555555555556,0.12129629629629629],[""2"",0.021296296296296296,0.09907407407407408],[""2"",0.18888888888888888,0.12129629629629629],[""3"",-0.08703703703703704,0.1037037037037037],[""3"",-0.06388888888888888,0.1037037037037037],[""3"",-0.07407407407407407,0.10740740740740741],[""3"",0.03888888888888889,0.11203703703703703],[""3"",0.07685185185185185,0.11944444444444445],[""3"",0.07777777777777778,0.11944444444444445],[""4"",-0.24722222222222223,0.11481481481481481],[""4"",-0.1638888888888889,0.11481481481481481],[""4"",-0.1675925925925926,0.12407407407407407],[""4"",-0.075,0.12314814814814815],[""4"",-0.058333333333333334,0.11944444444444445],[""5"",-0.35185185185185186,0.1259259259259259],[""5"",-0.225,0.1175925925925926],[""5"",-0.1685185185185185,0.1259259259259259],[""5"",-0.1675925925925926,0.12777777777777777],[""6"",-0.34074074074074073,0.16944444444444445],[""6"",-0.26666666666666666,0.12407407407407407],[""6"",-0.26296296296296295,0.12222222222222222],[""7"",0.016666666666666666,0.29444444444444445],[""7"",0.023148148148148147,0.29444444444444445],[""7"",-0.10833333333333334,0.1925925925925926],[""7"",-0.24074074074074073,0.18796296296296297],[""7"",-0.31203703703703706,0.14722222222222223],[""7"",-0.33796296296296297,0.1361111111111111],[""7"",-0.3453703703703704,0.12685185185185185],[""6"",-0.24351851851851852,0.1175925925925926],[""6"",-0.2351851851851852,0.12314814814814815]]","[[""A"",""H""],[""C"",""H""],[""E"",""H""],[""E"",""C""],[""B"",""H""],[""B"",""E""],[""C"",""D""],[""B"",""D""],[""C"",""F""],[""B"",""F""],[""D"",""F""],[""G"",""E""],[""G"",""D""],[""G"",""F""]]",14,0.51,128.559,0,4,4,4,1,,,,,,,,,,,,
,,,,,,,,,,,,,,,,,,,,,,,,,,,,,,,,,,,,,,,,,,,,,,,,,,,,,,,,,,,,jl05,001,2021-10-08_20h17.58.277,seq_teaching_exp,2021.2.3,Win32,62.42197253,,,,,,,,,,,,,,,,,,,,,,,,,,,,,,,,,,,,,,,,,,,,,,,,,,,,,,,,,,,,,,,,materials/merge_sort/imgs/fruits/apple,,,,,,,,D,A,"F,D,A,B,E,H,I,C,G,J",0.52037037,-0.356481481,1,0,0,"[""5"",""7"",""6"",""1"",""4"",""9"",""8"",""10"",""2"",""3""]","[""'E'"",""'I'"",""'H'"",""'F'"",""'B'"",""'G'"",""'C'"",""'J'"",""'D'"",""'A'""]","[[""1"",-0.23981481481481481,0.2962962962962963],[""1"",-0.1787037037037037,0.16111111111111112],[""1"",-0.11944444444444445,0.13518518518518519],[""2"",-0.18333333333333332,0.25092592592592594],[""2"",-0.07407407407407407,0.15],[""2"",-0.06018518518518518,0.13703703703703704],[""2"",-0.05555555555555555,0.13240740740740742],[""2"",0.012037037037037037,0.14074074074074075],[""2"",0.05648148148148148,0.13703703703703704],[""3"",-0.10277777777777777,0.18611111111111112],[""3"",-0.025,0.125],[""3"",-0.044444444444444446,0.1398148148148148],[""4"",-0.1398148148148148,0.2833333333333333],[""4"",-0.21666666666666667,0.16574074074074074],[""4"",-0.2074074074074074,0.13796296296296295],[""4"",-0.2037037037037037,0.1361111111111111],[""5"",-0.06851851851851852,0.30277777777777776],[""5"",-0.15092592592592594,0.14722222222222223],[""5"",-0.16203703703703703,0.13796296296296295],[""5"",-0.16296296296296298,0.13796296296296295],[""6"",0.05,0.16944444444444445],[""6"",0.1111111111111111,0.14074074074074075],[""6"",0.12407407407407407,0.13796296296296295],[""6"",0.1259259259259259,0.13796296296296295],[""6"",0.13148148148148148,0.14351851851851852],[""6"",0.19814814814814816,0.13055555555555556],[""6"",0.19907407407407407,0.13055555555555556],[""7"",0.125,0.14907407407407408],[""7"",0.12777777777777777,0.1388888888888889],[""8"",0.10462962962962963,0.2796296296296296],[""8"",0.2388888888888889,0.11388888888888889],[""8"",0.2518518518518518,0.13240740740740742],[""8"",0.25462962962962965,0.13518518518518519],[""4"",-0.2074074074074074,0.14629629629629629],[""4"",-0.25277777777777777,0.14351851851851852],[""4"",-0.2611111111111111,0.13796296296296295],[""9"",0.13425925925925927,0.3055555555555556],[""5"",-0.1962962962962963,0.14907407407407408],[""9"",-0.03518518518518519,0.262037037037037],[""5"",-0.2,0.16111111111111112],[""5"",-0.15555555555555556,0.14351851851851852],[""9"",-0.041666666666666664,0.26666666666666666],[""9"",-0.22685185185185186,0.24074074074074073],[""9"",-0.22037037037037038,0.1388888888888889],[""9"",-0.21388888888888888,0.1361111111111111],[""10"",0.1925925925925926,0.3101851851851852],[""10"",-0.007407407407407408,0.32685185185185184],[""10"",-0.15555555555555556,0.24074074074074073],[""10"",-0.18611111111111112,0.20462962962962963],[""10"",-0.19166666666666668,0.19444444444444445]]","[[""E"",""I""],[""E"",""H""],[""F"",""H""],[""F"",""E""],[""B"",""F""],[""B"",""I""],[""B"",""E""],[""G"",""E""],[""G"",""I""],[""C"",""H""],[""C"",""G""],[""C"",""I""],[""J"",""H""],[""J"",""G""],[""D"",""I""],[""D"",""F""],[""D"",""E""],[""D"",""B""],[""A"",""H""],[""A"",""F""],[""A"",""B""],[""A"",""D""]]",22,0.515,155.482,0,5,5,5,1,,,,,,,,,,,,
,,,,,,,,,,,,,,,,,,,,,,,,,,,,,,,,,,,,,,,,,,,,,,,,,,,,,,,,,,,,jl05,001,2021-10-08_20h17.58.277,seq_teaching_exp,2021.2.3,Win32,62.42197253,,,,,,,,,,,,,,,,,,,,,,,,,,,,,,,,,,,,,,,,,,,,,,,,,,,,,,,,,,,,,,,,,,,,,,,,,,,,,,,,,,,,,,,,,,,,,0.067592593,-0.339814815,1,0,0,13.882,0.125925926,-0.159259259,1,0,0
