background_mouse.x,background_mouse.y,background_mouse.leftButton,background_mouse.midButton,background_mouse.rightButton,demographic_age,demographic_education,demographic_gender,background.tEnd,intro_mouse.x,intro_mouse.y,intro_mouse.leftButton,intro_mouse.midButton,intro_mouse.rightButton,intro.tEnd,hint_mouse.x,hint_mouse.y,hint_mouse.leftButton,hint_mouse.midButton,hint_mouse.rightButton,hint.tEnd,merge_intro_mouse.x,merge_intro_mouse.y,merge_intro_mouse.leftButton,merge_intro_mouse.midButton,merge_intro_mouse.rightButton,merge_intro.tEnd,merge_train_scale_right.text,merge_train_scale_left.text,merge_train_mouse.x,merge_train_mouse.y,merge_train_mouse.leftButton,merge_train_mouse.midButton,merge_train_mouse.rightButton,merge_train_mouse.clicked_name,merge_train.tStart,mc_order,merge_train_compareN,merge_train_labels,merge_train_input,merge_train_compare_records,merge_train_mouse_clicked,merge_train.tEnd,merge_expl_mouse.x,merge_expl_mouse.y,merge_expl_mouse.leftButton,merge_expl_mouse.midButton,merge_expl_mouse.rightButton,merge_expl.tStart,merge_expl.tEnd,TRAIN_1.thisRepN,TRAIN_1.thisTrialN,TRAIN_1.thisN,TRAIN_1.thisIndex,TRAIN_1.ran,img_path,input,encryption,mc_path_1,mc_path_2,participant,session,date,expName,psychopyVersion,OS,frameRate,merge_test_intro_mouse.x,merge_test_intro_mouse.y,merge_test_intro_mouse.leftButton,merge_test_intro_mouse.midButton,merge_test_intro_mouse.rightButton,merge_test_intro.tEnd,merge_test_scale_right.text,merge_test_scale_left.text,merge_test_res.text,merge_test_mouse.x,merge_test_mouse.y,merge_test_mouse.leftButton,merge_test_mouse.midButton,merge_test_mouse.rightButton,merge_test_input,merge_test_labels,merge_test_compareN,merge_test_compare_records,merge_test.tStart,merge_test.tEnd,TEST_1.thisRepN,TEST_1.thisTrialN,TEST_1.thisN,TEST_1.thisIndex,TEST_1.ran,sort_intro_mouse.x,sort_intro_mouse.y,sort_intro_mouse.leftButton,sort_intro_mouse.midButton,sort_intro_mouse.rightButton,sort_intro.tEnd,sort_train_scale_right.text,sort_train_scale_left.text,sort_train_res.text,sort_train_mouse.x,sort_train_mouse.y,sort_train_mouse.leftButton,sort_train_mouse.midButton,sort_train_mouse.rightButton,sort_train_input,sort_train_labels,sort_train_trace,sort_train_compareN,sort_train.tStart,sort_train.tEnd,sort_train_compare_records,sort_expl_scale_right.text,sort_expl_scale_left.text,sort_expl_mouse.x,sort_expl_mouse.y,sort_expl_mouse.leftButton,sort_expl_mouse.midButton,sort_expl_mouse.rightButton,sort_expl_trace,sort_expl_compareN,sort_expl_compare_records,sort_expl.tStart,sort_expl.tEnd,TRAIN_2.thisRepN,TRAIN_2.thisTrialN,TRAIN_2.thisN,TRAIN_2.thisIndex,TRAIN_2.ran,img_path_base,ms_compare,sort_test_intro_mouse.x,sort_test_intro_mouse.y,sort_test_intro_mouse.leftButton,sort_test_intro_mouse.midButton,sort_test_intro_mouse.rightButton,sort_test_intro.tEnd,sort_test_scale_right.text,sort_test_scale_left.text,sort_test_res.text,sort_test_mouse.x,sort_test_mouse.y,sort_test_mouse.leftButton,sort_test_mouse.midButton,sort_test_mouse.rightButton,sort_test_input,sort_test_labels,sort_test_trace,sort_test_compare_records,sort_test_compareN,sort_test.tStart,sort_test.tEnd,TEST_2.thisRepN,TEST_2.thisTrialN,TEST_2.thisN,TEST_2.thisIndex,TEST_2.ran,exp_check_res.text,exp_check_mouse.x,exp_check_mouse.y,exp_check_mouse.leftButton,exp_check_mouse.midButton,exp_check_mouse.rightButton,exp_check.tEnd,debrief_mouse.x,debrief_mouse.y,debrief_mouse.leftButton,debrief_mouse.midButton,debrief_mouse.rightButton
0.00370373,-0.381481508,1,0,0,_18_24,high_school_equivalent,male,27.9061,0.112962993,-0.380555582,1,0,0,26.547,0.038888917,-0.389814841,1,0,0,7.2651,0.059259288,-0.387963046,1,0,0,46.3147,B,A,0.432407447,-0.429629714,1,0,0,merge_train_btn_2,0.5126,"[0,1]",1,"[""'A'"",""'B'""]","[""4"",""2""]","[[""A"",""B""]]","[""merge_train_btn_2""]",58.2801,0.31944448,-0.391666693,1,0,0,0.501,26.6176,0,0,0,0,1,materials/merge_sort/imgs/merge_train/merge_train_ex_1.png,,,materials/merge_sort/imgs/merge_train/merge_train_ex_1_1_correct.png,materials/merge_sort/imgs/merge_train/merge_train_ex_1_1_wrong.png,000,001,2021-10-18_20h36.30.426,seq_teaching_exp,2021.2.3,Win32,59.91611744,,,,,,,,,,,,,,,,,,,,,,,,,,,,,,,,,,,,,,,,,,,,,,,,,,,,,,,,,,,,,,,,,,,,,,,,,,,,,,,,,,,,,,,,,,,,,,,,,,,,,,,
,,,,,,,,,,,,,,,,,,,,,,,,,,,D,B,0.44074078,-0.392592619,1,0,0,merge_train_btn_2,0.5058,"[1,0]",1,"[""'A'"",""'B'"",""'D'"",""'C'""]","[""1"",""4"",""2"",""3""]","[[""B"",""D""]]","[""merge_train_btn_2""]",22.7892,0.350925963,-0.425000028,1,0,0,0.5135,3.83,0,1,1,1,1,materials/merge_sort/imgs/merge_train/merge_train_ex_2.png,,,materials/merge_sort/imgs/merge_train/merge_train_ex_2_1_correct.png,materials/merge_sort/imgs/merge_train/merge_train_ex_2_1_wrong.png,000,001,2021-10-18_20h36.30.426,seq_teaching_exp,2021.2.3,Win32,59.91611744,,,,,,,,,,,,,,,,,,,,,,,,,,,,,,,,,,,,,,,,,,,,,,,,,,,,,,,,,,,,,,,,,,,,,,,,,,,,,,,,,,,,,,,,,,,,,,,,,,,,,,,
,,,,,,,,,,,,,,,,,,,,,,,,,,,C,B,0.487037078,-0.393518602,1,0,0,merge_train_btn_2,0.5161,"[1,0]",1,"[""'A'"",""'B'"",""'D'"",""'C'""]","[""1"",""4"",""2"",""3""]","[[""B"",""C""]]","[""merge_train_btn_2""]",11.583,0.309259295,-0.412037064,1,0,0,0.5144,5.248,0,2,2,2,1,materials/merge_sort/imgs/merge_train/merge_train_ex_2.png,,,materials/merge_sort/imgs/merge_train/merge_train_ex_2_2_correct.png,materials/merge_sort/imgs/merge_train/merge_train_ex_2_2_wrong.png,000,001,2021-10-18_20h36.30.426,seq_teaching_exp,2021.2.3,Win32,59.91611744,,,,,,,,,,,,,,,,,,,,,,,,,,,,,,,,,,,,,,,,,,,,,,,,,,,,,,,,,,,,,,,,,,,,,,,,,,,,,,,,,,,,,,,,,,,,,,,,,,,,,,,
,,,,,,,,,,,,,,,,,,,,,,,,,,,E,B,0.495370412,-0.395370397,1,0,0,merge_train_btn_2,0.5046,"[1,0]",1,"[""'C'"",""'D'"",""'B'"",""'A'"",""'G'"",""'E'"",""'F'""]","[""1"",""2"",""5"",""7"",""3"",""4"",""6""]","[[""B"",""E""]]","[""merge_train_btn_2""]",21.3714,0.325925962,-0.416666694,1,0,0,0.5138,4.5303,0,3,3,3,1,materials/merge_sort/imgs/merge_train/merge_train_ex_5.png,,,materials/merge_sort/imgs/merge_train/merge_train_ex_5_1_correct.png,materials/merge_sort/imgs/merge_train/merge_train_ex_5_1_wrong.png,000,001,2021-10-18_20h36.30.426,seq_teaching_exp,2021.2.3,Win32,59.91611744,,,,,,,,,,,,,,,,,,,,,,,,,,,,,,,,,,,,,,,,,,,,,,,,,,,,,,,,,,,,,,,,,,,,,,,,,,,,,,,,,,,,,,,,,,,,,,,,,,,,,,,
,,,,,,,,,,,,,,,,,,,,,,,,,,,B,F,0.434259299,-0.413888916,1,0,0,merge_train_btn_2,0.5166,"[0,1]",1,"[""'C'"",""'D'"",""'B'"",""'A'"",""'G'"",""'E'"",""'F'""]","[""1"",""2"",""5"",""7"",""3"",""4"",""6""]","[[""F"",""B""]]","[""merge_train_btn_2""]",10.9335,0.325925962,-0.427777805,1,0,0,0.5139,2.1804,0,4,4,4,1,materials/merge_sort/imgs/merge_train/merge_train_ex_5.png,,,materials/merge_sort/imgs/merge_train/merge_train_ex_5_2_correct.png,materials/merge_sort/imgs/merge_train/merge_train_ex_5_2_wrong.png,000,001,2021-10-18_20h36.30.426,seq_teaching_exp,2021.2.3,Win32,59.91611744,,,,,,,,,,,,,,,,,,,,,,,,,,,,,,,,,,,,,,,,,,,,,,,,,,,,,,,,,,,,,,,,,,,,,,,,,,,,,,,,,,,,,,,,,,,,,,,,,,,,,,,
,,,,,,,,,,,,,,,,,,,,,,,,,,,F,A,0.499074115,-0.405555583,1,0,0,merge_train_btn_2,0.5157,"[0,1]",1,"[""'C'"",""'D'"",""'B'"",""'A'"",""'G'"",""'E'"",""'F'""]","[""1"",""2"",""5"",""7"",""3"",""4"",""6""]","[[""A"",""F""]]","[""merge_train_btn_2""]",10.533,0.332407444,-0.431481509,1,0,0,0.5136,6.097,0,5,5,5,1,materials/merge_sort/imgs/merge_train/merge_train_ex_5.png,,,materials/merge_sort/imgs/merge_train/merge_train_ex_5_3_correct.png,materials/merge_sort/imgs/merge_train/merge_train_ex_5_3_wrong.png,000,001,2021-10-18_20h36.30.426,seq_teaching_exp,2021.2.3,Win32,59.91611744,,,,,,,,,,,,,,,,,,,,,,,,,,,,,,,,,,,,,,,,,,,,,,,,,,,,,,,,,,,,,,,,,,,,,,,,,,,,,,,,,,,,,,,,,,,,,,,,,,,,,,,
,,,,,,,,,,,,,,,,,,,,,,,,,,,,,,,,,,,,,,,,,,,,,,,,,,,,,,,materials/merge_sort/imgs/merge_test/merge_test_ex_1.png,,,,,000,001,2021-10-18_20h36.30.426,seq_teaching_exp,2021.2.3,Win32,59.91611744,-0.01759251,-0.404629713,1,0,0,15.3608,E,B,"C,A,D,E,B",0.476851893,-0.36944447,1,0,0,"[""1"",""2"",""5"",""3"",""4""]","[""'C'"",""'A'"",""'B'"",""'D'"",""'E'""]",4,"[[""C"",""D""],[""A"",""D""],[""B"",""D""],[""B"",""E""]]",0.513,36.3081,0,0,0,0,1,,,,,,,,,,,,,,,,,,,,,,,,,,,,,,,,,,,,,,,,,,,,,,,,,,,,,,,,,,,,,,,,,,,,,,,,,,,,,,
,,,,,,,,,,,,,,,,,,,,,,,,,,,,,,,,,,,,,,,,,,,,,,,,,,,,,,,materials/merge_sort/imgs/merge_test/merge_test_ex_2.png,,,,,000,001,2021-10-18_20h36.30.426,seq_teaching_exp,2021.2.3,Win32,59.91611744,,,,,,,B,C,"D,E,B,A,C",0.515740783,-0.363888915,1,0,0,"[""3"",""4"",""5"",""1"",""2""]","[""'B'"",""'A'"",""'C'"",""'D'"",""'E'""]",5,"[[""B"",""D""],[""B"",""E""],[""A"",""E""],[""C"",""E""],[""C"",""B""]]",0.5084,51.0087,0,1,1,1,1,,,,,,,,,,,,,,,,,,,,,,,,,,,,,,,,,,,,,,,,,,,,,,,,,,,,,,,,,,,,,,,,,,,,,,,,,,,,,,
,,,,,,,,,,,,,,,,,,,,,,,,,,,,,,,,,,,,,,,,,,,,,,,,,,,,,,,materials/merge_sort/imgs/merge_test/merge_test_ex_3.png,,,,,000,001,2021-10-18_20h36.30.426,seq_teaching_exp,2021.2.3,Win32,59.91611744,,,,,,,,C,"F,D,A,E,C,B",0.437037077,-0.336111136,1,0,0,"[""3"",""5"",""6"",""1"",""2"",""4""]","[""'A'"",""'C'"",""'B'"",""'F'"",""'D'"",""'E'""]",4,"[[""A"",""F""],[""A"",""D""],[""A"",""E""],[""C"",""E""]]",0.5149,37.0189,0,2,2,2,1,,,,,,,,,,,,,,,,,,,,,,,,,,,,,,,,,,,,,,,,,,,,,,,,,,,,,,,,,,,,,,,,,,,,,,,,,,,,,,
,,,,,,,,,,,,,,,,,,,,,,,,,,,,,,,,,,,,,,,,,,,,,,,,,,,,,,,materials/merge_sort/imgs/merge_test/merge_test_ex_4.png,,,,,000,001,2021-10-18_20h36.30.426,seq_teaching_exp,2021.2.3,Win32,59.91611744,,,,,,,F,A,"E,D,B,G,C,F,A",0.524074116,-0.349074156,1,0,0,"[""2"",""3"",""5"",""7"",""1"",""4"",""6""]","[""'D'"",""'B'"",""'C'"",""'A'"",""'E'"",""'G'"",""'F'""]",6,"[[""D"",""E""],[""D"",""G""],[""B"",""G""],[""C"",""G""],[""C"",""F""],[""A"",""F""]]",0.5105,37.2111,0,3,3,3,1,,,,,,,,,,,,,,,,,,,,,,,,,,,,,,,,,,,,,,,,,,,,,,,,,,,,,,,,,,,,,,,,,,,,,,,,,,,,,,
,,,,,,,,,,,,,,,,,,,,,,,,,,,,,,,,,,,,,,,,,,,,,,,,,,,,,,,materials/merge_sort/imgs/merge_test/merge_test_ex_5.png,,,,,000,001,2021-10-18_20h36.30.426,seq_teaching_exp,2021.2.3,Win32,59.91611744,,,,,,,F,D,"C,E,G,A,B,D,F",0.468518559,-0.357407489,1,0,0,"[""1"",""4"",""5"",""6"",""2"",""3"",""7""]","[""'C'"",""'A'"",""'B'"",""'D'"",""'E'"",""'G'"",""'F'""]",6,"[[""C"",""E""],[""A"",""E""],[""A"",""G""],[""A"",""F""],[""B"",""F""],[""D"",""F""]]",0.5034,47.7762,0,4,4,4,1,,,,,,,,,,,,,,,,,,,,,,,,,,,,,,,,,,,,,,,,,,,,,,,,,,,,,,,,,,,,,,,,,,,,,,,,,,,,,,
,,,,,,,,,,,,,,,,,,,,,,,,,,,,,,,,,,,,,,,,,,,,,,,,,,,,,,,,,,,,000,001,2021-10-18_20h36.30.426,seq_teaching_exp,2021.2.3,Win32,59.91611744,,,,,,,,,,,,,,,,,,,,,,,,,,0.023148175,-0.413888916,1,0,0,23.6905,D,E,EDFCAB,0.44074078,-0.355555581,1,0,0,"[""5"",""4"",""6"",""3"",""1"",""2""]","[""'A'"",""'D'"",""'B'"",""'C'"",""'E'"",""'F'""]","[[""6"",-0.053703622299210316,0.2824074009226428],[""6"",-0.11388886579208904,0.2824074009226428],[""6"",-0.07499997574422095,0.29074073450432886],[""6"",0.01759261960784594,0.30462962380713887],[""6"",0.003703730305035909,0.2916666604578495],[""6"",0.006481508165597916,0.3120370173067954],[""6"",-0.002777751369608773,0.29999999403953553],[""6"",-0.002777751369608773,0.29907406808601483],[""2"",-0.20277775733007325,0.3027777719000975],[""2"",-0.3046296122173468,0.09351847814740874],[""1"",-0.2249999802145693,0.26851851161983276],[""1"",-0.13796294058362643,0.10092591403259171],[""1"",-0.1314814023949465,0.11111109952131908],[""1"",-0.18518516421318054,0.11111109952131908],[""1"",-0.15833331156108116,0.10833332166075707],[""1"",-0.15833331156108116,0.10740736745021877],[""3"",-0.0407407154639562,0.15092591552270784],[""3"",-0.028703621554152254,0.09351847814740874],[""3"",-0.026851826161146165,0.11574070103190479],[""4"",-0.10740738411744435,0.26666665971279147],[""4"",-0.16111108942164315,0.19907406510578263],[""4"",-0.16759251458225258,0.18611110175649326],[""4"",-0.15370362527944256,0.1842592498494519],[""5"",-0.1657407191892465,0.24722221468885738],[""5"",-0.16759251458225258,0.2629629558987088],[""5"",-0.15092584741888054,0.25555554827054344],[""6"",-0.11851849555969238,0.3157407352493869],[""6"",-0.16018516346812248,0.31666666120290754],[""3"",0.024074157796525872,0.10277776593963305],[""3"",0.06481484323740005,0.0981481361720297],[""3"",0.10370373328526815,0.10833332166075707],[""3"",0.14907410500778093,0.09999998807907104],[""3"",0.1620370683570703,0.08981480259034369],[""1"",-0.08518516123294831,0.08611109877626101],[""1"",-0.08796293909351031,0.08981480259034369],[""6"",-0.19907405351599058,0.1611111010114352],[""6"",-0.19629627565542856,0.08518514456572272],[""6"",-0.2101851649582386,0.08518514456572272],[""4"",-0.16203695886112857,0.19259258343113794],[""4"",-0.15277775583995712,0.13240736819527682],[""4"",-0.14537029169775653,0.09166665449738502],[""4"",-0.14444442225827112,0.08796292242628473],[""1"",0.059259287516276044,0.08888887663682302],[""1"",0.09814817756414414,0.08796292242628473],[""1"",0.0990741035176648,0.08796292242628473],[""5"",-0.15092584741888054,0.25740740017758473],[""5"",-0.06388886430197292,0.10462958958965676],[""5"",-0.10833331007096503,0.11111109952131908],[""5"",-0.15092584741888054,0.15555554529031118],[""5"",-0.1629629413286845,0.16296295291847654],[""5"",-0.1416666443977091,0.14999998956918717],[""6"",-0.15462960774699847,0.1935185093846586],[""6"",-0.1333333108160231,0.21111110250155132],[""5"",-0.16666664514276716,0.15925924910439385],[""5"",-0.228703684028652,0.1194444331030051],[""5"",-0.21481479472584195,0.10370369189315372],[""5"",-0.21481479472584195,0.09629625600797075],[""4"",-0.06203695588089633,0.09722221021850903],[""4"",0.025000027236011295,0.10092591403259171],[""4"",0.005555582212077247,0.08703702472978168],[""6"",-0.0555555307202869,0.0981481361720297],[""6"",-0.07499997574422095,0.08981480259034369],[""6"",-0.09814806806820242,0.08981480259034369],[""6"",-0.10092584592876443,0.08981480259034369],[""5"",-0.17777775658501518,0.08611109877626101],[""5"",-0.21388886877232127,0.09629625600797075],[""2"",-0.2814814633793301,0.09999998807907104],[""2"",-0.24074072142442068,0.0953703583114677],[""2"",-0.1712962749103705,0.0953703583114677],[""2"",-0.15648140314000455,0.0953703583114677]]",12,0.5214,199.8006,"[[""A"",""D""],[""A"",""B""],[""C"",""B""],[""E"",""B""],[""F"",""B""],[""F"",""A""],[""C"",""A""],[""E"",""A""],[""E"",""C""],[""C"",""F""],[""E"",""F""],[""E"",""D""]]",,,0.51851856,-0.337037062,1,0,0,"[[""5"",-0.14814806955831855,0.18333332389593124],[""5"",-0.12777775509489908,0.20462962082690664],[""6"",-0.10555553221040302,0.11481480333540174],[""6"",-0.12777775509489908,0.13518514605583884],[""6"",-0.1768518306314945,0.220370362036758],[""6"",-0.17777775658501518,0.220370362036758],[""4"",-0.010185158997774123,0.12037035905652577],[""4"",-0.07962960551182428,0.22685184371140268],[""3"",0.10370373328526815,0.12777776668469112],[""3"",0.03333336081769731,0.17407406436072456],[""3"",-0.02407404830058416,0.22870369561844403],[""3"",-0.026851826161146165,0.22962962157196468],[""2"",-0.1425925138371945,0.10925924761427773],[""2"",-0.1416666443977091,0.11666665524244309],[""2"",-0.025925843693590245,0.16481480482551786],[""2"",-0.02314806583302824,0.17222221245368322],[""2"",0.015740824214839855,0.1842592498494519],[""2"",0.030555582957135306,0.22685184371140268],[""1"",0.09166669588949945,0.11203702547483974],[""1"",0.08611114016837544,0.19259258343113794],[""1"",0.08981484398245812,0.22499999180436134],[""5"",-0.1296296070019404,0.21574073226915466],[""5"",-0.13796294058362643,0.225925917757882],[""5"",-0.11851849555969238,0.22499999180436134],[""5"",-0.12314806881326047,0.22407406585084066]]",0,[],0.5117,54.8611,0,0,0,0,1,materials/merge_sort/imgs/fruits/apple,8,,,,,,,,,,,,,,,,,,,,,,,,,,,,,,,,,,,,,,
,,,,,,,,,,,,,,,,,,,,,,,,,,,,,,,,,,,,,,,,,,,,,,,,,,,,,,,,,,,,000,001,2021-10-18_20h36.30.426,seq_teaching_exp,2021.2.3,Win32,59.91611744,,,,,,,,,,,,,,,,,,,,,,,,,,,,,,,,B,G,GBFEACD,0.44074078,-0.326851933,1,0,0,"[""6"",""2"",""4"",""7"",""5"",""3"",""1""]","[""'C'"",""'B'"",""'E'"",""'D'"",""'A'"",""'F'"",""'G'""]","[[""1"",-0.20833331305119726,0.2629629558987088],[""1"",0.0018519349120298203,0.13240736819527682],[""1"",0.01018526849371584,0.15277776742974916],[""1"",0.09259262184302013,0.17592591626776588],[""1"",0.09814817756414414,0.1518518414762285],[""1"",0.09629632565710279,0.1518518414762285],[""2"",-0.16666664514276716,0.2379629551536507],[""2"",-0.10833331007096503,0.14074070177696285],[""2"",-0.11018516197800636,0.14074070177696285],[""2"",-0.11944442151321305,0.15925924910439385],[""2"",-0.11203695737101245,0.16018517505791452],[""2"",-0.097222198628717,0.15555554529031118],[""2"",-0.09259251234707841,0.14814813766214582],[""2"",-0.08888886504703097,0.14537035980158383],[""2"",-0.09907405053575834,0.15833332315087317],[""3"",-0.14629627416531246,0.30462962380713887],[""3"",-0.12037029095269847,0.2768518452015188],[""3"",0.023148175328969955,0.18055554603536925],[""3"",0.03611113867825932,0.15648147124383185],[""3"",-0.019444418532980814,0.15833332315087317],[""3"",-0.10925917951045044,0.16296295291847654],[""3"",-0.09537029020764042,0.08981480259034369],[""3"",-0.09999997648927901,0.07314813542697164],[""3"",-0.10555553221040302,0.06851847740235067],[""3"",-0.097222198628717,0.06851847740235067],[""3"",-0.09629627267519633,0.06851847740235067],[""2"",-0.06481473374145834,0.15555554529031118],[""2"",-0.060185160487890244,0.15370369338326983],[""2"",-0.11759251309213646,0.14444443384806316],[""2"",-0.13981473597663252,0.1490740636156665],[""2"",-0.14074071844418842,0.1490740636156665],[""3"",-0.06944442002309693,0.11666665524244309],[""3"",-0.04629627118508021,0.15277776742974916],[""3"",-0.02222219639354282,0.15370369338326983],[""3"",-0.026851826161146165,0.15092591552270784],[""3"",-0.02407404830058416,0.14722221170862515],[""3"",-0.02129627044002215,0.1490740636156665],[""3"",-0.02129627044002215,0.15370369338326983],[""3"",-0.02129627044002215,0.1490740636156665],[""4"",-0.06203695588089633,0.2777777711550395],[""4"",-0.03055552997522884,0.2351851772930887],[""4"",-0.02222219639354282,0.22685184371140268],[""4"",0.004629712772591827,0.22129628799027867],[""4"",0.03703706463177999,0.17499999031424524],[""4"",0.041666694399383336,0.15833332315087317],[""4"",0.039814842492342,0.15648147124383185],[""4"",0.039814842492342,0.15277776742974916],[""4"",0.07037039895852407,0.19537036129169993],[""4"",0.042592620352904,0.22407406585084066],[""4"",0.03888891653882132,0.22314813989732002],[""4"",0.041666694399383336,0.22314813989732002],[""4"",0.11944447449511952,0.21296295440859264],[""4"",0.21111114389366573,0.15833332315087317],[""4"",0.20185188435845905,0.15370369338326983],[""4"",0.20092595840493838,0.15370369338326983],[""4"",0.21481484770774842,0.1546296193367905],[""4"",0.21944447747535176,0.15555554529031118],[""3"",-0.03055552997522884,0.15555554529031118],[""3"",-0.04629627118508021,0.15555554529031118],[""5"",0.01111113793320126,0.17037036054664187],[""5"",0.03333336081769731,0.18981480557057592],[""5"",0.02592595318953196,0.22222221394379935],[""5"",0.0277778050965733,0.22407406585084066],[""5"",0.03888891653882132,0.17592591626776588],[""5"",0.02037039746840795,0.15833332315087317],[""5"",0.023148175328969955,0.15370369338326983],[""5"",0.024074157796525872,0.15370369338326983],[""3"",-0.042592510856962286,0.15925924910439385],[""3"",-0.04722219713860088,0.15092591552270784],[""3"",-0.049074049045642214,0.14722221170862515],[""6"",-0.011111084951294793,0.24907406659589873],[""6"",-0.013888862811856799,0.24537036278181606],[""6"",-0.01481473225134222,0.23055554752548535],[""6"",-0.04629627118508021,0.21203702845507197],[""6"",-0.08888886504703097,0.21851851012971665],[""6"",-0.08796293909351031,0.21944443608323733],[""2"",-0.14629627416531246,0.1518518414762285],[""2"",-0.18425923825965987,0.14629628575510448],[""2"",-0.1870370161202219,0.14444443384806316],[""6"",-0.10833331007096503,0.18148147198888992],[""6"",-0.1268518291413784,0.14999998956918717],[""6"",-0.11111108793152703,0.14444443384806316],[""6"",-0.10925917951045044,0.14444443384806316],[""3"",-0.0407407154639562,0.15833332315087317],[""3"",-0.027777752114666834,0.15925924910439385],[""3"",-0.03888886355691486,0.14999998956918717],[""7"",0.007407490633153833,0.26851851161983276],[""7"",-0.097222198628717,0.21018517654803065],[""7"",-0.06851849406957626,0.21574073226915466],[""7"",-0.0870369566259544,0.225925917757882],[""7"",-0.09166664290759298,0.225925917757882],[""7"",-0.11851849555969238,0.22222221394379935],[""7"",-0.11203695737101245,0.2324073994325267],[""7"",-0.2009259054230319,0.19907406510578263],[""7"",-0.2601851664483547,0.15833332315087317],[""7"",-0.26481479621595805,0.15092591552270784]]",15,0.5026,239.9717,"[[""C"",""B""],[""C"",""E""],[""C"",""E""],[""B"",""E""],[""B"",""D""],[""E"",""D""],[""C"",""D""],[""E"",""A""],[""C"",""A""],[""F"",""A""],[""F"",""E""],[""F"",""B""],[""G"",""E""],[""G"",""F""],[""G"",""B""]]",,,0.555555599,-0.341666692,1,0,0,[],0,[],0.5135,6.1302,0,1,1,1,1,materials/merge_sort/imgs/fruits/banana,12,,,,,,,,,,,,,,,,,,,,,,,,,,,,,,,,,,,,,,
,,,,,,,,,,,,,,,,,,,,,,,,,,,,,,,,,,,,,,,,,,,,,,,,,,,,,,,,,,,,000,001,2021-10-18_20h36.30.426,seq_teaching_exp,2021.2.3,Win32,59.91611744,,,,,,,,,,,,,,,,,,,,,,,,,,,,,,,,C,H,CHDFEABG,0.492592634,-0.351851934,1,0,0,"[""7"",""6"",""5"",""8"",""4"",""3"",""2"",""1""]","[""'B'"",""'A'"",""'E'"",""'G'"",""'F'"",""'D'"",""'H'"",""'C'""]","[[""1"",-0.2398147954709,0.30833332762122156],[""1"",-0.06574071620901425,0.09907403386853275],[""1"",-0.06574071620901425,0.0981481361720297],[""2"",-0.21574072067936262,0.1194444331030051],[""2"",-0.24166664737794136,0.08518514456572272],[""2"",-0.23518516570329667,0.0953703583114677],[""3"",-0.228703684028652,0.21111110250155132],[""3"",-0.32407405724128086,0.13425924835933578],[""3"",-0.32407405724128086,0.08425924686921968],[""3"",-0.3296296129624049,0.09999998807907104],[""4"",-0.15648140314000455,0.18981480557057592],[""4"",-0.14907405202587445,0.18333332389593124],[""4"",0.02592595318953196,0.16574073077903853],[""4"",0.05092595393459002,0.09629625600797075],[""4"",0.05092595393459002,0.09351847814740874],[""5"",-0.11666664365265104,0.23703702920013003],[""5"",-0.16203695886112857,0.17962962008184857],[""5"",-0.14907405202587445,0.1731481384072039],[""5"",-0.17407405277093252,0.17962962008184857],[""5"",-0.1749999787244532,0.18333332389593124],[""5"",-0.23888886951737934,0.16481480482551786],[""5"",-0.26203701835539606,0.17037036054664187],[""5"",-0.26851850003004074,0.17037036054664187],[""2"",-0.1749999787244532,0.10092591403259171],[""2"",-0.17870368253853586,0.10092591403259171],[""2"",-0.1805555344455772,0.10092591403259171],[""5"",-0.25925924049483406,0.12777776668469112],[""5"",-0.25925924049483406,0.1249999888241291],[""5"",-0.2916666488680575,0.1268518124741528],[""5"",-0.3166666496131155,0.16018517505791452],[""3"",-0.2611110924018754,0.09166665449738502],[""3"",-0.24999998095962736,0.09074070028684673],[""3"",-0.2518518328666687,0.09629625600797075],[""3"",-0.2518518328666687,0.09722221021850903],[""5"",-0.3203703534271982,0.16574073077903853],[""5"",-0.33055553891592554,0.10277776593963305],[""5"",-0.33055553891592554,0.09999998807907104],[""2"",-0.18611109016670122,0.12037035905652577],[""2"",-0.15462960774699847,0.11018514531078077],[""2"",-0.15833331156108116,0.10092591403259171],[""1"",-0.03055552997522884,0.08703702472978168],[""1"",-0.0407407154639562,0.09166665449738502],[""1"",-0.0407407154639562,0.09351847814740874],[""6"",-0.06111108644141091,0.2601851780381468],[""6"",-0.09907405053575834,0.23981480706069205],[""6"",-0.19722220160894924,0.1935185093846586],[""6"",-0.20648146114415591,0.16574073077903853],[""6"",-0.20370368328359392,0.16574073077903853],[""6"",-0.24999998095962736,0.1731481384072039],[""6"",-0.31759257556663617,0.16851850863960055],[""6"",-0.2990740564962228,0.16481480482551786],[""6"",-0.27962961147228876,0.16296295291847654],[""6"",-0.36018516942858697,0.1518518414762285],[""6"",-0.37222220682435564,0.11296292317134278],[""6"",-0.3620370213356283,0.10648146975371572],[""6"",-0.30740739007790885,0.10740736745021877],[""6"",-0.3333333167764876,0.10833332166075707],[""6"",-0.3703703549173143,0.10648146975371572],[""5"",-0.3333333167764876,0.10925924761427773],[""5"",-0.29722220458918147,0.10740736745021877],[""5"",-0.28888887100749544,0.10462958958965676],[""5"",-0.24722220309906537,0.11296292317134278],[""5"",-0.3018518343567848,0.11388887738188108],[""5"",-0.30648146412438815,0.10740736745021877],[""5"",-0.2944444267286195,0.10648146975371572],[""3"",-0.2518518328666687,0.10277776593963305],[""3"",-0.22962960998217266,0.10833332166075707],[""7"",-0.08055553146534496,0.2611111039916674],[""7"",-0.15925918100056657,0.225925917757882],[""7"",-0.1805555344455772,0.21296295440859264],[""7"",-0.1833333123061392,0.20740739868746863],[""2"",-0.15462960774699847,0.11111109952131908],[""2"",-0.09999997648927901,0.10185181172909476],[""2"",-0.10370362378932643,0.09999998807907104],[""7"",-0.17870368253853586,0.20925925059450998],[""7"",-0.2731481297976441,0.1935185093846586],[""7"",-0.3222222053342395,0.18148147198888992],[""7"",-0.33425924273000823,0.17962962008184857],[""6"",-0.36296294728914896,0.1194444331030051],[""6"",-0.3157407236595949,0.11666665524244309],[""3"",-0.23796294356385866,0.11111109952131908],[""3"",-0.1629629413286845,0.10370369189315372],[""3"",-0.14814806955831855,0.10092591403259171],[""5"",-0.2787036855187681,0.10277776593963305],[""5"",-0.2129629428188006,0.09907403386853275],[""5"",-0.20185183137655258,0.10648146975371572],[""6"",-0.28240738933285076,0.10740736745021877],[""6"",-0.25092590691314803,0.09907403386853275],[""6"",-0.2675925740765201,0.10740736745021877],[""7"",-0.3259259091483222,0.1731481384072039],[""7"",-0.3166666496131155,0.10092591403259171],[""7"",-0.32129627938071886,0.09999998807907104],[""8"",0.005555582212077247,0.2814814608406133],[""8"",0.006481508165597916,0.2879629566437668],[""8"",-0.11018516197800636,0.2351851772930887],[""8"",-0.1712962749103705,0.19814813915226195],[""8"",-0.14907405202587445,0.1935185093846586],[""8"",-0.15092584741888054,0.20555554678042728],[""8"",-0.23518516570329667,0.20185184296634462],[""8"",-0.24074072142442068,0.18703702771001393],[""8"",-0.26574072216947875,0.19999999105930327],[""8"",-0.29999998244974346,0.19537036129169993],[""8"",-0.30370368626382616,0.19444443533817926],[""8"",-0.31388887175255353,0.20740739868746863],[""8"",-0.3194444274736775,0.18888887961705525],[""8"",-0.3564814656145043,0.1314814704987738],[""8"",-0.3703703549173143,0.09907403386853275],[""8"",-0.36666665110323166,0.10648146975371572],[""8"",-0.368518503010273,0.10740736745021877]]",16,0.5127,160.4478,"[[""B"",""A""],[""E"",""A""],[""G"",""A""],[""G"",""B""],[""F"",""B""],[""F"",""A""],[""F"",""E""],[""D"",""A""],[""D"",""E""],[""D"",""F""],[""A"",""H""],[""F"",""H""],[""D"",""H""],[""E"",""C""],[""D"",""C""],[""H"",""C""]]",,,0.521296338,-0.368518601,1,0,0,[],0,[],0.5135,34.1974,0,2,2,2,1,materials/merge_sort/imgs/fruits/apple,13,,,,,,,,,,,,,,,,,,,,,,,,,,,,,,,,,,,,,,
,,,,,,,,,,,,,,,,,,,,,,,,,,,,,,,,,,,,,,,,,,,,,,,,,,,,,,,,,,,,000,001,2021-10-18_20h36.30.426,seq_teaching_exp,2021.2.3,Win32,59.91611744,,,,,,,,,,,,,,,,,,,,,,,,,,,,,,,,E,A,DIJEACBGFH,0.461111151,-0.342592618,1,0,0,"[""8"",""6"",""4"",""3"",""2"",""10"",""9"",""7"",""1"",""5""]","[""'G'"",""'C'"",""'E'"",""'J'"",""'I'"",""'H'"",""'F'"",""'B'"",""'D'"",""'A'""]","[[""1"",-0.1981481275624699,0.24259258492125405],[""1"",-0.09074071695407232,0.17962962008184857],[""1"",-0.08518516123294831,0.1842592498494519],[""1"",0.08981484398245812,0.1222222109635671],[""1"",0.0990741035176648,0.11296292317134278],[""1"",0.10462965923878882,0.10833332166075707],[""2"",-0.19722220160894924,0.3018518459465769],[""2"",-0.1268518291413784,0.11759258119596375],[""2"",-0.12777775509489908,0.1249999888241291],[""3"",-0.14629627416531246,0.30370368372510936],[""3"",-0.17870368253853586,0.2601851780381468],[""3"",-0.19074071993430455,0.214814806315634],[""3"",-0.031481399414714256,0.19907406510578263],[""3"",-0.025925843693590245,0.19907406510578263],[""3"",-0.03055552997522884,0.19814813915226195],[""3"",-0.09999997648927901,0.20555554678042728],[""3"",-0.10648140164988844,0.20555554678042728],[""3"",-0.14907405202587445,0.1907407315240966],[""3"",-0.1629629413286845,0.18518517580297258],[""3"",-0.22962960998217266,0.12870369263821177],[""3"",-0.23148146188921398,0.1268518124741528],[""2"",-0.05462960476676623,0.12314813691708777],[""2"",-0.05648140015977232,0.1249999888241291],[""2"",-0.051851826906204226,0.12592591477764978],[""4"",-0.09351849481463433,0.3055555497606595],[""4"",-0.10277775434984102,0.19259258343113794],[""4"",-0.1351851627230644,0.14166665598750114],[""4"",-0.15092584741888054,0.13888887812693915],[""4"",-0.1425925138371945,0.12962959033471483],[""4"",-0.14351849630475044,0.18240739794241057],[""4"",-0.14351849630475044,0.20185184296634462],[""4"",-0.234259239749776,0.18148147198888992],[""4"",-0.3472222060792976,0.1268518124741528],[""4"",-0.3296296129624049,0.1222222109635671],[""4"",-0.3287036870088842,0.1222222109635671],[""5"",-0.09814806806820242,0.26851851161983276],[""5"",-0.10185182839632034,0.2675925715378033],[""3"",-0.16759251458225258,0.1314814704987738],[""3"",-0.14351849630475044,0.13240736819527682],[""3"",-0.14351849630475044,0.12777776668469112],[""5"",-0.19722220160894924,0.20462962082690664],[""5"",-0.2249999802145693,0.14074070177696285],[""5"",-0.24537035119202402,0.12962959033471483],[""5"",-0.33981479845113227,0.18888887961705525],[""5"",-0.3509259098933803,0.18888887961705525],[""4"",-0.26481479621595805,0.13888887812693915],[""4"",-0.21759257258640397,0.1249999888241291],[""4"",-0.22129627640048663,0.1249999888241291],[""5"",-0.31296294579903283,0.15092591552270784],[""5"",-0.30740739007790885,0.12962959033471483],[""5"",-0.31018516793847084,0.11481480333540174],[""6"",0.06481484323740005,0.214814806315634],[""6"",0.13888891951905358,0.17962962008184857],[""6"",0.21666669961478974,0.09351847814740874],[""6"",0.21666669961478974,0.11296292317134278],[""6"",0.21666669961478974,0.11759258119596375],[""7"",0.04537039821346601,0.29907406808601483],[""7"",0.08888891802893745,0.22685184371140268],[""7"",0.0842592882613341,0.19999999105930327],[""1"",0.06018521346979671,0.13333332240581514],[""1"",0.05648150965571404,0.11481480333540174],[""7"",0.13703706761201223,0.14444443384806316],[""7"",0.1407407714260949,0.12129625675302881],[""7"",0.1324074378444089,0.11759258119596375],[""8"",0.04907415854158393,0.225925917757882],[""8"",0.04444447225994534,0.22499999180436134],[""8"",0.024074157796525872,0.17592591626776588],[""8"",0.01018526849371584,0.1370370262198978],[""8"",0.01018526849371584,0.1314814704987738],[""9"",0.14907410500778093,0.30462962380713887],[""9"",0.14907410500778093,0.30370368372510936],[""9"",0.09722225161062346,0.2814814608406133],[""9"",0.09351854779654079,0.28333332687616347],[""9"",0.012963046354277847,0.24907406659589873],[""9"",-0.10740738411744435,0.22222221394379935],[""9"",-0.10833331007096503,0.22222221394379935],[""9"",-0.15462960774699847,0.21111110250155132],[""9"",-0.31388887175255353,0.16574073077903853],[""9"",-0.36296294728914896,0.15277776742974916],[""9"",-0.3638888732426696,0.13055554454525312],[""9"",-0.3703703549173143,0.11851847889246679],[""10"",0.20185188435845905,0.2981481280039854],[""10"",0.07592595467964808,0.2564814742240641],[""10"",-0.09351849481463433,0.17222221245368322],[""10"",-0.097222198628717,0.1787036941283279],[""10"",-0.09629627267519633,0.1546296193367905],[""10"",-0.09999997648927901,0.13981480408045982],[""10"",-0.09999997648927901,0.13333332240581514]]",23,0.5156,239.6022,"[[""G"",""C""],[""G"",""E""],[""C"",""E""],[""C"",""J""],[""E"",""J""],[""G"",""I""],[""I"",""E""],[""I"",""J""],[""H"",""G""],[""H"",""F""],[""F"",""E""],[""F"",""C""],[""F"",""G""],[""H"",""B""],[""H"",""C""],[""B"",""C""],[""B"",""G""],[""B"",""D""],[""E"",""D""],[""I"",""D""],[""A"",""C""],[""A"",""J""],[""A"",""E""]]",,,0.451851892,-0.334259284,1,0,0,[],0,[],0.5132,7.2801,0,3,3,3,1,materials/merge_sort/imgs/fruits/melon,21,,,,,,,,,,,,,,,,,,,,,,,,,,,,,,,,,,,,,,
,,,,,,,,,,,,,,,,,,,,,,,,,,,,,,,,,,,,,,,,,,,,,,,,,,,,,,,,,,,,000,001,2021-10-18_20h36.30.426,seq_teaching_exp,2021.2.3,Win32,59.91611744,,,,,,,,,,,,,,,,,,,,,,,,,,,,,,,,,,,,,,,,,,,,,,,,,,,,,,,,,,,,,,,,materials/merge_sort/imgs/fruits/melon,,0.058333362,-0.39629638,1,0,0,20.3299,D,F,"D,F,B,A,C,E",0.41111115,-0.37870373,1,0,0,"[""6"",""3"",""5"",""4"",""2"",""1""]","[""'E'"",""'B'"",""'C'"",""'A'"",""'F'"",""'D'""]","[[""1"",-0.060185160487890244,0.17037036054664187],[""1"",0.041666694399383336,0.14074070177696285],[""1"",0.2092592919866244,0.10462958958965676],[""2"",-0.19629627565542856,0.23148147347900602],[""2"",-0.18518516421318054,0.1518518414762285],[""2"",-0.18518516421318054,0.1490740636156665],[""2"",-0.1768518306314945,0.11666665524244309],[""2"",-0.15925918100056657,0.08703702472978168],[""3"",-0.07870362304426837,0.13518514605583884],[""3"",0.03148150891065597,0.07499998733401299],[""3"",0.03888891653882132,0.13611110026637713],[""3"",0.021296379935963866,0.1194444331030051],[""3"",0.02037039746840795,0.12314813691708777],[""3"",0.022222249375449286,0.15370369338326983],[""3"",0.021296379935963866,0.17222221245368322],[""3"",0.023148175328969955,0.17499999031424524],[""4"",-0.1342591802555085,0.19166665747761727],[""4"",-0.07777775360478295,0.14814813766214582],[""4"",-0.08333330932590696,0.17777776817480723],[""4"",-0.09351849481463433,0.17962962008184857],[""4"",-0.06481473374145834,0.18518517580297258],[""4"",-0.06666664216253493,0.18518517580297258],[""4"",-0.04999997499916289,0.17777776817480723],[""4"",-0.04999997499916289,0.1787036941283279],[""5"",-0.05648140015977232,0.29629629022545284],[""5"",-0.12037029095269847,0.20555554678042728],[""5"",-0.11296293983856837,0.18240739794241057],[""5"",-0.10648140164988844,0.18240739794241057],[""5"",-0.11666664365265104,0.17777776817480723],[""5"",-0.11944442151321305,0.17777776817480723],[""5"",-0.12129627342025438,0.17777776817480723],[""5"",-0.1240740512808164,0.17129628650016254],[""5"",-0.15092584741888054,0.15925924910439385],[""5"",-0.20648146114415591,0.14166665598750114],[""5"",-0.23888886951737934,0.0981481361720297],[""5"",-0.23611109165681732,0.08425924686921968],[""4"",-0.044444419278038876,0.11018514531078077],[""4"",-0.07129627193013827,0.08703702472978168],[""4"",-0.07407404979070027,0.09907403386853275],[""3"",0.02870373105009397,0.18518517580297258],[""3"",0.03796304709933591,0.11759258119596375],[""3"",0.04907415854158393,0.09629625600797075],[""6"",-0.0064813986696562,0.31759257302791943],[""6"",-0.11018516197800636,0.22314813989732002],[""6"",-0.11388886579208904,0.17407406436072456],[""3"",0.0990741035176648,0.10648146975371572],[""3"",0.13518521570497088,0.0981481361720297],[""4"",-0.058333308580848904,0.11574070103190479],[""4"",-0.024999974254104825,0.10740736745021877],[""4"",0.008333360072639254,0.10648146975371572],[""4"",0.0351852692387739,0.10555554380019506],[""4"",0.0351852692387739,0.10370369189315372],[""6"",-0.1314814023949465,0.16944443459312122],[""6"",-0.13981473597663252,0.1731481384072039],[""6"",-0.15555553370051914,0.17037036054664187],[""6"",-0.1805555344455772,0.16759258268607988],[""6"",-0.2749999817046854,0.10833332166075707],[""6"",-0.3222222053342395,0.08981480259034369]]","[[""E"",""B""],[""E"",""C""],[""A"",""C""],[""F"",""A""],[""B"",""C""],[""B"",""A""],[""B"",""F""],[""A"",""D""],[""B"",""D""],[""F"",""D""]]",10,0.5095,109.2769,0,0,0,0,1,,,,,,,,,,,,
,,,,,,,,,,,,,,,,,,,,,,,,,,,,,,,,,,,,,,,,,,,,,,,,,,,,,,,,,,,,000,001,2021-10-18_20h36.30.426,seq_teaching_exp,2021.2.3,Win32,59.91611744,,,,,,,,,,,,,,,,,,,,,,,,,,,,,,,,,,,,,,,,,,,,,,,,,,,,,,,,,,,,,,,,materials/merge_sort/imgs/fruits/banana,,,,,,,,F,B,"E,B,F,A,C,D",0.541666709,-0.342592618,1,0,0,"[""4"",""6"",""5"",""2"",""3"",""1""]","[""'A'"",""'D'"",""'C'"",""'B'"",""'F'"",""'E'""]","[[""1"",-0.24999998095962736,0.2675925715378033],[""1"",-0.23796294356385866,0.11851847889246679],[""1"",-0.23240738784273465,0.10185181172909476],[""2"",-0.07592584518370636,0.20462962082690664],[""2"",0.042592620352904,0.0981481361720297],[""2"",0.042592620352904,0.0953703583114677],[""3"",-0.1240740512808164,0.23703702920013003],[""3"",-0.12037029095269847,0.16203702696495587],[""3"",-0.11851849555969238,0.14722221170862515],[""4"",-0.1342591802555085,0.29074073450432886],[""4"",-0.15185182988643647,0.2740740673409568],[""4"",-0.30740739007790885,0.17962962008184857],[""4"",-0.33981479845113227,0.10462958958965676],[""4"",-0.34907405798633895,0.10092591403259171],[""3"",-0.11851849555969238,0.1314814704987738],[""3"",-0.10462960625688235,0.09351847814740874],[""3"",-0.09814806806820242,0.10648146975371572],[""1"",-0.2074073870976766,0.11388887738188108],[""1"",-0.1685184970498085,0.11296292317134278],[""1"",-0.16666664514276716,0.10925924761427773],[""1"",-0.1731480703033766,0.10370369189315372],[""5"",-0.12222219937377506,0.2777777711550395],[""5"",-0.1296296070019404,0.2777777711550395],[""5"",-0.23518516570329667,0.18333332389593124],[""5"",-0.27685183361172677,0.18240739794241057],[""5"",-0.25555553668075137,0.1842592498494519],[""6"",-0.05925917802033433,0.27499999329447744],[""6"",-0.2305555359356933,0.23981480706069205],[""6"",-0.2546296107272307,0.2537036963635021],[""6"",-0.2601851664483547,0.2537036963635021],[""4"",-0.32129627938071886,0.10555554380019506],[""4"",-0.29814813054270217,0.09629625600797075],[""4"",-0.2990740564962228,0.09629625600797075],[""6"",-0.2870370191004541,0.22129628799027867],[""6"",-0.33148146486944624,0.13518514605583884],[""6"",-0.35185183584690094,0.0925925804509057],[""6"",-0.36296294728914896,0.09074070028684673],[""5"",-0.24074072142442068,0.18333332389593124],[""5"",-0.2305555359356933,0.11111109952131908],[""5"",-0.23240738784273465,0.09999998807907104]]","[[""A"",""D""],[""A"",""C""],[""A"",""B""],[""A"",""C""],[""A"",""F""],[""A"",""E""],[""B"",""E""],[""B"",""F""]]",8,0.5055,82.9222,0,1,1,1,1,,,,,,,,,,,,
,,,,,,,,,,,,,,,,,,,,,,,,,,,,,,,,,,,,,,,,,,,,,,,,,,,,,,,,,,,,000,001,2021-10-18_20h36.30.426,seq_teaching_exp,2021.2.3,Win32,59.91611744,,,,,,,,,,,,,,,,,,,,,,,,,,,,,,,,,,,,,,,,,,,,,,,,,,,,,,,,,,,,,,,,materials/merge_sort/imgs/fruits/apple,,,,,,,,C,G,"G,C,E,A,F,D,B",0.481481522,-0.354629712,1,0,0,"[""7"",""5"",""3"",""6"",""1"",""4"",""2""]","[""'B'"",""'F'"",""'E'"",""'D'"",""'G'"",""'A'"",""'C'""]","[[""1"",-0.0481480665780863,0.15555554529031118],[""1"",0.09074076993597878,0.09074070028684673],[""1"",0.10648151114583015,0.10277776593963305],[""2"",-0.19629627565542856,0.2787036829800513],[""2"",-0.15462960774699847,0.1842592498494519],[""2"",-0.12499997723433706,0.13333332240581514],[""2"",-0.1287036245343845,0.09907403386853275],[""2"",-0.1314814023949465,0.09444443235794703],[""3"",-0.12499997723433706,0.29259257228286134],[""3"",0.02685193565708788,0.17777776817480723],[""3"",-0.009259176530218207,0.16574073077903853],[""3"",-0.01481473225134222,0.16944443459312122],[""3"",-0.01481473225134222,0.17407406436072456],[""3"",-0.0435184933245182,0.18888887961705525],[""3"",-0.2564814626342721,0.12592591477764978],[""3"",-0.2907407229145368,0.10555554380019506],[""3"",-0.2944444267286195,0.0953703583114677],[""3"",-0.29999998244974346,0.09444443235794703],[""4"",-0.031481399414714256,0.1314814704987738],[""4"",2.6490953233506943e-8,0.09999998807907104],[""4"",-0.002777751369608773,0.10925924761427773],[""4"",-0.010185158997774123,0.11018514531078077],[""3"",-0.30370368626382616,0.09999998807907104],[""3"",-0.2740740557511648,0.10277776593963305],[""3"",-0.24814812905258601,0.09444443235794703],[""3"",-0.24537035119202402,0.09444443235794703],[""5"",-0.05740738262732824,0.3018518459465769],[""5"",-0.22962960998217266,0.20370369487338597],[""5"",-0.34259257631169426,0.11759258119596375],[""5"",-0.3333333167764876,0.0981481361720297],[""5"",-0.33148146486944624,0.09722221021850903],[""6"",-0.01481473225134222,0.3018518459465769],[""6"",-0.1749999787244532,0.19722221319874128],[""6"",-0.18425923825965987,0.17685184222128655],[""6"",-0.1833333123061392,0.16296295291847654],[""6"",-0.19351849779486657,0.11296292317134278],[""6"",-0.19722220160894924,0.09999998807907104],[""6"",-0.19351849779486657,0.09907403386853275],[""6"",-0.19351849779486657,0.10555554380019506],[""6"",-0.1888888680272632,0.10277776593963305],[""6"",-0.18796294207374256,0.0981481361720297],[""6"",-0.18611109016670122,0.09722221021850903],[""2"",-0.042592510856962286,0.1222222109635671],[""2"",-0.04166664141747686,0.10925924761427773],[""2"",-0.044444419278038876,0.10833332166075707],[""4"",-0.008333307090732786,0.11851847889246679],[""4"",0.06574076919092073,0.10092591403259171],[""4"",0.046296380681021924,0.10277776593963305],[""2"",-0.019444418532980814,0.10277776593963305],[""2"",-0.01481473225134222,0.10277776593963305],[""6"",-0.1629629413286845,0.10370369189315372],[""6"",-0.10555553221040302,0.10185181172909476],[""3"",-0.18148146039909788,0.10925924761427773],[""3"",-0.17222220086389117,0.11018514531078077],[""7"",0.03611113867825932,0.29722221617897354],[""7"",-0.05277775285972489,0.22314813989732002],[""7"",-0.11388886579208904,0.19537036129169993],[""7"",-0.1749999787244532,0.17592591626776588],[""7"",-0.22777775807513131,0.1222222109635671],[""7"",-0.2527777588201894,0.11018514531078077]]","[[""B"",""F""],[""B"",""E""],[""F"",""E""],[""B"",""D""],[""F"",""D""],[""G"",""D""],[""G"",""E""],[""F"",""A""],[""F"",""E""],[""A"",""E""],[""F"",""C""],[""A"",""C""],[""E"",""C""],[""G"",""C""]]",14,0.5054,134.1733,0,2,2,2,1,,,,,,,,,,,,
,,,,,,,,,,,,,,,,,,,,,,,,,,,,,,,,,,,,,,,,,,,,,,,,,,,,,,,,,,,,000,001,2021-10-18_20h36.30.426,seq_teaching_exp,2021.2.3,Win32,59.91611744,,,,,,,,,,,,,,,,,,,,,,,,,,,,,,,,,,,,,,,,,,,,,,,,,,,,,,,,,,,,,,,,materials/merge_sort/imgs/fruits/banana,,,,,,,,B,A,"F,G,C,E,B,A,D",0.463888929,-0.337963044,1,0,0,"[""4"",""7"",""2"",""6"",""3"",""5"",""1""]","[""'E'"",""'D'"",""'G'"",""'A'"",""'C'"",""'B'"",""'F'""]","[[""1"",-0.1731480703033766,0.21574073226915466],[""1"",-0.14907405202587445,0.22685184371140268],[""1"",-0.06944442002309693,0.23148147347900602],[""1"",0.10462965923878882,0.30833332762122156],[""1"",0.12407410426272286,0.30462962380713887],[""1"",0.11574077068103684,0.30462962380713887],[""1"",0.11018521495991283,0.30462962380713887],[""1"",0.10740743709935083,0.3027777719000975],[""1"",0.11018521495991283,0.2731481272589273],[""1"",0.11944447449511952,0.2027777689198653],[""1"",0.15740743858946693,0.13796292391640083],[""1"",0.1648148462176323,0.11296292317134278],[""1"",0.16851855003171498,0.11296292317134278],[""1"",0.174074105752839,0.11203702547483974],[""1"",0.1583333645429876,0.10370369189315372],[""1"",0.1675926240781943,0.10370369189315372],[""7"",0.04907415854158393,0.26851851161983276],[""7"",-0.0555555307202869,0.16388887887199718],[""7"",-0.03888886355691486,0.12407403461359082],[""7"",0.01111113793320126,0.10740736745021877],[""7"",-0.002777751369608773,0.10648146975371572],[""7"",-0.01481473225134222,0.10555554380019506],[""2"",-0.05648140015977232,0.20740739868746863],[""2"",0.17777780956692166,0.19166665747761727],[""2"",0.30833336901333597,0.11759258119596375],[""2"",0.30833336901333597,0.10370369189315372],[""2"",0.30833336901333597,0.10092591403259171],[""3"",-0.07314806732314436,0.24166665896773337],[""3"",0.06203706537683805,0.1518518414762285],[""3"",0.06759262109796206,0.13425924835933578],[""3"",0.024074157796525872,0.14351847963752487],[""3"",0.04907415854158393,0.10740736745021877],[""3"",0.10185188137822682,0.11666665524244309],[""3"",0.08888891802893745,0.10833332166075707],[""3"",0.08703706612189611,0.10740736745021877],[""4"",0.06851854705148273,0.22314813989732002],[""4"",0.17129632789227697,0.20092591701282395],[""4"",0.23148151487112045,0.18055554603536925],[""4"",0.24074077440632713,0.18055554603536925],[""4"",0.23148151487112045,0.1907407315240966],[""4"",0.23703707059224446,0.14074070177696285],[""4"",0.2333333667781618,0.0981481361720297],[""4"",0.2333333667781618,0.10925924761427773],[""5"",-0.06111108644141091,0.29351851236489085],[""5"",0.09444447375006146,0.1935185093846586],[""5"",0.12222225235568153,0.1490740636156665],[""5"",0.13148151189088822,0.11574070103190479],[""5"",0.12407410426272286,0.10462958958965676],[""6"",0.022222249375449286,0.2981481280039854],[""6"",0.059259287516276044,0.2944444383184115],[""6"",0.24907410798801316,0.21203702845507197],[""6"",0.26944447896546786,0.19814813915226195],[""4"",0.23981484845280648,0.1194444331030051],[""4"",0.2675926270584265,0.11111109952131908],[""4"",0.2685185530119472,0.10833332166075707],[""6"",0.23796299654576514,0.15925924910439385],[""6"",0.21111114389366573,0.09999998807907104],[""6"",0.21018521794014508,0.09999998807907104]]","[[""E"",""F""],[""E"",""D""],[""G"",""D""],[""G"",""E""],[""G"",""F""],[""G"",""A""],[""E"",""A""],[""D"",""A""],[""C"",""E""],[""C"",""F""],[""C"",""G""],[""E"",""B""],[""D"",""B""],[""A"",""B""]]",14,0.514,131.7155,0,3,3,3,1,,,,,,,,,,,,
,,,,,,,,,,,,,,,,,,,,,,,,,,,,,,,,,,,,,,,,,,,,,,,,,,,,,,,,,,,,000,001,2021-10-18_20h36.30.426,seq_teaching_exp,2021.2.3,Win32,59.91611744,,,,,,,,,,,,,,,,,,,,,,,,,,,,,,,,,,,,,,,,,,,,,,,,,,,,,,,,,,,,,,,,materials/merge_sort/imgs/fruits/melon,,,,,,,,F,G,"G,F,D,B,E,C,H,A",0.463888929,-0.374074157,1,0,0,"[""8"",""7"",""6"",""5"",""4"",""3"",""2"",""1""]","[""'A'"",""'H'"",""'C'"",""'E'"",""'B'"",""'D'"",""'F'"",""'G'""]","[[""1"",-0.24999998095962736,0.3055555497606595],[""1"",-0.03981473299640028,0.2027777689198653],[""1"",0.06666669514444139,0.18703702771001393],[""1"",0.061111139423317376,0.18611110175649326],[""1"",-0.0435184933245182,0.19814813915226195],[""1"",0.08055558444725143,0.17777776817480723],[""1"",0.11759262258807818,0.12037035905652577],[""1"",0.13981484547257422,0.10833332166075707],[""2"",-0.19999997946951126,0.2537036963635021],[""2"",-0.1749999787244532,0.14629628575510448],[""2"",-0.15462960774699847,0.1249999888241291],[""2"",-0.1370369581160705,0.11574070103190479],[""2"",-0.1370369581160705,0.11481480333540174],[""3"",-0.14074071844418842,0.29259257228286134],[""3"",-0.02962960402170817,0.18240739794241057],[""3"",2.6490953233506943e-8,0.1731481384072039],[""3"",-0.003703620809094193,0.19166665747761727],[""3"",-0.00555552923017078,0.19166665747761727],[""3"",-0.025925843693590245,0.18703702771001393],[""3"",-0.23611109165681732,0.10185181172909476],[""3"",-0.2601851664483547,0.10648146975371572],[""3"",-0.2527777588201894,0.11759258119596375],[""2"",-0.14444442225827112,0.1222222109635671],[""2"",-0.0870369566259544,0.12129625675302881],[""2"",-0.0824073833723863,0.11481480333540174],[""4"",-0.17777775658501518,0.2499999925494194],[""4"",-0.31759257556663617,0.12407403461359082],[""4"",-0.31851850152015687,0.1194444331030051],[""3"",-0.2166666466328833,0.13055554454525312],[""3"",-0.20370368328359392,0.11296292317134278],[""3"",-0.21111109091175928,0.11851847889246679],[""2"",-0.035185159742832185,0.12407403461359082],[""2"",0.042592620352904,0.11296292317134278],[""2"",0.041666694399383336,0.11296292317134278],[""3"",-0.06944442002309693,0.11851847889246679],[""3"",-0.049074049045642214,0.11851847889246679],[""4"",-0.2249999802145693,0.09907403386853275],[""4"",-0.16759251458225258,0.11018514531078077],[""4"",-0.15648140314000455,0.11481480333540174],[""5"",-0.07499997574422095,0.28333332687616347],[""5"",-0.0824073833723863,0.2768518452015188],[""5"",-0.19722220160894924,0.17129628650016254],[""5"",-0.2675925740765201,0.11203702547483974],[""5"",-0.2675925740765201,0.11111109952131908],[""6"",-0.08333330932590696,0.26574073375927076],[""6"",-0.2944444267286195,0.15925924910439385],[""6"",-0.32777776105536355,0.12037035905652577],[""6"",-0.3324073908229669,0.11574070103190479],[""5"",-0.2574073885877927,0.12314813691708777],[""5"",-0.20833331305119726,0.12592591477764978],[""4"",-0.16111108942164315,0.12037035905652577],[""4"",-0.11759251309213646,0.12037035905652577],[""4"",-0.10462960625688235,0.12037035905652577],[""5"",-0.19907405351599058,0.12777776668469112],[""5"",-0.1629629413286845,0.11574070103190479],[""6"",-0.31759257556663617,0.11759258119596375],[""6"",-0.22592590616808997,0.11018514531078077],[""6"",-0.22407405426104862,0.11018514531078077],[""7"",-0.08888886504703097,0.24259258492125405],[""7"",-0.3018518343567848,0.12777776668469112],[""7"",-0.3120370198455122,0.10925924761427773],[""8"",0.10092595542470614,0.3018518459465769],[""8"",0.08240743635429276,0.29351851236489085],[""7"",-0.34907405798633895,0.09999998807907104],[""7"",-0.2731481297976441,0.12592591477764978],[""8"",0.09444447375006146,0.2981481280039854],[""8"",-0.0555555307202869,0.2740740673409568],[""7"",-0.3444444282187356,0.1425925819410218],[""7"",-0.2842592412398921,0.14351847963752487],[""7"",-0.27962961147228876,0.11759258119596375],[""7"",-0.2731481297976441,0.11111109952131908],[""8"",-0.11851849555969238,0.2638888818522294],[""8"",-0.27592590765820607,0.2083333246409893],[""8"",-0.3333333167764876,0.12592591477764978],[""8"",-0.3361110946370496,0.11759258119596375]]","[[""A"",""H""],[""A"",""C""],[""H"",""C""],[""A"",""E""],[""C"",""E""],[""B"",""E""],[""B"",""D""],[""D"",""F""],[""G"",""F""]]",9,0.5065,137.708,0,4,4,4,1,,,,,,,,,,,,
,,,,,,,,,,,,,,,,,,,,,,,,,,,,,,,,,,,,,,,,,,,,,,,,,,,,,,,,,,,,000,001,2021-10-18_20h36.30.426,seq_teaching_exp,2021.2.3,Win32,59.91611744,,,,,,,,,,,,,,,,,,,,,,,,,,,,,,,,,,,,,,,,,,,,,,,,,,,,,,,,,,,,,,,,materials/merge_sort/imgs/fruits/apple,,,,,,,,G,J,"F,D,A,B,E,H,I,C,G,J",0.462037077,-0.351851934,1,0,0,"[""5"",""7"",""6"",""1"",""4"",""9"",""8"",""10"",""2"",""3""]","[""'E'"",""'I'"",""'H'"",""'F'"",""'B'"",""'G'"",""'C'"",""'J'"",""'D'"",""'A'""]","[[""1"",-0.19999997946951126,0.16944443459312122],[""1"",-0.1925925718413459,0.09722221021850903],[""1"",-0.19166664588782523,0.09444443235794703],[""2"",-0.17870368253853586,0.28425923870117537],[""2"",-0.044444419278038876,0.11018514531078077],[""2"",-0.02962960402170817,0.08981480259034369],[""10"",0.13518521570497088,0.27592590511948933],[""1"",-0.25370368477371,0.07314813542697164],[""9"",0.11296299282047484,0.20740739868746863],[""9"",0.13981484547257422,0.220370362036758],[""10"",0.0990741035176648,0.20185184296634462],[""10"",0.07777780658668942,0.19166665747761727],[""10"",0.004629712772591827,0.17499999031424524],[""10"",-0.1351851627230644,0.11851847889246679],[""1"",-0.27592590765820607,0.08240736670516072],[""1"",-0.18425923825965987,0.07592591328753365],[""1"",-0.1768518306314945,0.07407403312347469],[""10"",-0.14074071844418842,0.12407403461359082],[""10"",-0.2527777588201894,0.11111109952131908],[""10"",-0.26851850003004074,0.080555543055137],[""10"",-0.2638888702624374,0.07407403312347469],[""1"",-0.09814806806820242,0.10833332166075707],[""1"",-0.0824073833723863,0.10092591403259171],[""10"",-0.19166664588782523,0.0925925804509057],[""10"",-0.13981473597663252,0.0981481361720297],[""10"",-0.13611108867658508,0.10092591403259171],[""9"",0.08240743635429276,0.21759258417619598],[""9"",-0.0870369566259544,0.1546296193367905],[""9"",-0.16203695886112857,0.10462958958965676],[""9"",-0.19444442374838722,0.09999998807907104],[""9"",-0.2222222023540073,0.10185181172909476],[""9"",-0.24166664737794136,0.09907403386853275],[""10"",-0.14999997797939513,0.11018514531078077],[""10"",-0.1925925718413459,0.10462958958965676],[""1"",-0.08148140090483037,0.11296292317134278],[""1"",-0.11574071769913037,0.10648146975371572],[""1"",-0.13611108867658508,0.10277776593963305],[""1"",-0.13981473597663252,0.10185181172909476],[""3"",-0.14537029169775653,0.3157407352493869],[""3"",-0.12129627342025438,0.22314813989732002],[""3"",-0.08333330932590696,0.11481480333540174],[""3"",-0.08333330932590696,0.0953703583114677],[""4"",-0.09629627267519633,0.31666666120290754],[""4"",-0.1351851627230644,0.24259258492125405],[""4"",-0.16759251458225258,0.18148147198888992],[""4"",-0.16944442300332918,0.18055554603536925],[""4"",-0.1712962749103705,0.19259258343113794],[""4"",-0.20925923900471793,0.1787036941283279],[""4"",-0.22037035044696596,0.17777776817480723],[""4"",-0.28981479696101614,0.1370370262198978],[""4"",-0.3055555381708675,0.10370369189315372],[""4"",-0.3120370198455122,0.10185181172909476],[""4"",-0.3194444274736775,0.10092591403259171],[""4"",-0.32129627938071886,0.10092591403259171],[""1"",-0.12314806881326047,0.11203702547483974],[""1"",-0.11203695737101245,0.10462958958965676],[""1"",-0.08148140090483037,0.10462958958965676],[""1"",-0.10370362378932643,0.10462958958965676],[""1"",-0.10555553221040302,0.10462958958965676],[""1"",-0.07129627193013827,0.09444443235794703],[""1"",-0.13240738486250242,0.09444443235794703],[""1"",-0.1296296070019404,0.09444443235794703],[""1"",-0.11296293983856837,0.09444443235794703],[""1"",-0.08518516123294831,0.09722221021850903],[""1"",-0.06666664216253493,0.09722221021850903],[""1"",-0.11018516197800636,0.0953703583114677],[""1"",-0.12592584667382248,0.09629625600797075],[""3"",-0.08148140090483037,0.09629625600797075],[""3"",-0.05925917802033433,0.09074070028684673],[""3"",-0.058333308580848904,0.08981480259034369],[""1"",-0.11574071769913037,0.10370369189315372],[""1"",-0.09537029020764042,0.09444443235794703],[""1"",-0.09537029020764042,0.09351847814740874],[""5"",-0.10740738411744435,0.19166665747761727],[""5"",-0.14537029169775653,0.11666665524244309],[""5"",-0.14537029169775653,0.10277776593963305],[""5"",-0.14351849630475044,0.0981481361720297],[""6"",0.0018519349120298203,0.29074073450432886],[""6"",0.05000002798106935,0.13518514605583884],[""6"",0.08333336230781344,0.080555543055137],[""6"",0.08333336230781344,0.09074070028684673],[""6"",0.07870373254021008,0.0925925804509057],[""2"",-0.027777752114666834,0.09351847814740874],[""2"",2.6490953233506943e-8,0.09074070028684673],[""2"",0.029629713517649887,0.08981480259034369],[""2"",0.03333336081769731,0.09074070028684673],[""2"",-0.02222219639354282,0.10092591403259171],[""2"",-0.009259176530218207,0.09629625600797075],[""2"",-0.00555552923017078,0.0925925804509057],[""7"",0.05092595393459002,0.2916666604578495],[""7"",0.05092595393459002,0.09999998807907104],[""7"",0.03611113867825932,0.09074070028684673],[""8"",0.1462963271472189,0.17685184222128655],[""8"",0.13611114165849156,0.07499998733401299],[""8"",0.13518521570497088,0.08888887663682302]]","[[""E"",""I""],[""E"",""A""],[""D"",""A""],[""D"",""H""],[""A"",""H""],[""E"",""H""],[""I"",""H""],[""I"",""F""],[""I"",""E""],[""F"",""E""],[""F"",""A""],[""F"",""D""],[""F"",""B""],[""A"",""B""],[""H"",""B""],[""E"",""B""],[""A"",""G""],[""E"",""G""],[""I"",""G""],[""B"",""C""],[""H"",""C""],[""G"",""C""],[""I"",""C""],[""J"",""G""]]",24,0.5079,200.9264,0,5,5,5,1,,,,,,,,,,,,
,,,,,,,,,,,,,,,,,,,,,,,,,,,,,,,,,,,,,,,,,,,,,,,,,,,,,,,,,,,,000,001,2021-10-18_20h36.30.426,seq_teaching_exp,2021.2.3,Win32,59.91611744,,,,,,,,,,,,,,,,,,,,,,,,,,,,,,,,,,,,,,,,,,,,,,,,,,,,,,,,,,,,,,,,,,,,,,,,,,,,,,,,,,,,,,,,,,,,,0.01759262,-0.372222248,1,0,0,15.935,-0.006481399,-0.185185206,1,0,0
