background_mouse.x,background_mouse.y,background_mouse.leftButton,background_mouse.midButton,background_mouse.rightButton,demographic_age,demographic_education,demographic_gender,background.tEnd,intro_mouse.x,intro_mouse.y,intro_mouse.leftButton,intro_mouse.midButton,intro_mouse.rightButton,intro.tEnd,hint_mouse.x,hint_mouse.y,hint_mouse.leftButton,hint_mouse.midButton,hint_mouse.rightButton,hint.tEnd,merge_intro_mouse.x,merge_intro_mouse.y,merge_intro_mouse.leftButton,merge_intro_mouse.midButton,merge_intro_mouse.rightButton,merge_intro.tEnd,merge_train_scale_right.text,merge_train_scale_left.text,merge_train_mouse.x,merge_train_mouse.y,merge_train_mouse.leftButton,merge_train_mouse.midButton,merge_train_mouse.rightButton,merge_train_mouse.clicked_name,merge_train.tStart,mc_order,merge_train_compareN,merge_train_labels,merge_train_input,merge_train_compare_records,merge_train_mouse_clicked,merge_train.tEnd,merge_expl_mouse.x,merge_expl_mouse.y,merge_expl_mouse.leftButton,merge_expl_mouse.midButton,merge_expl_mouse.rightButton,merge_expl.tStart,merge_expl.tEnd,TRAIN_1.thisRepN,TRAIN_1.thisTrialN,TRAIN_1.thisN,TRAIN_1.thisIndex,TRAIN_1.ran,img_path,input,encryption,mc_path_1,mc_path_2,participant,session,date,expName,psychopyVersion,OS,frameRate,merge_test_intro_mouse.x,merge_test_intro_mouse.y,merge_test_intro_mouse.leftButton,merge_test_intro_mouse.midButton,merge_test_intro_mouse.rightButton,merge_test_intro.tEnd,merge_test_scale_right.text,merge_test_scale_left.text,merge_test_res.text,merge_test_mouse.x,merge_test_mouse.y,merge_test_mouse.leftButton,merge_test_mouse.midButton,merge_test_mouse.rightButton,merge_test_input,merge_test_labels,merge_test_compareN,merge_test_compare_records,merge_test.tStart,merge_test.tEnd,TEST_1.thisRepN,TEST_1.thisTrialN,TEST_1.thisN,TEST_1.thisIndex,TEST_1.ran,sort_intro_mouse.x,sort_intro_mouse.y,sort_intro_mouse.leftButton,sort_intro_mouse.midButton,sort_intro_mouse.rightButton,sort_intro.tEnd,sort_train_scale_right.text,sort_train_scale_left.text,sort_train_res.text,sort_train_mouse.x,sort_train_mouse.y,sort_train_mouse.leftButton,sort_train_mouse.midButton,sort_train_mouse.rightButton,sort_train_input,sort_train_labels,sort_train_trace,sort_train_compareN,sort_train.tStart,sort_train.tEnd,sort_train_compare_records,sort_expl_scale_right.text,sort_expl_scale_left.text,sort_expl_mouse.x,sort_expl_mouse.y,sort_expl_mouse.leftButton,sort_expl_mouse.midButton,sort_expl_mouse.rightButton,sort_expl_trace,sort_expl_compareN,sort_expl_compare_records,sort_expl.tStart,sort_expl.tEnd,TRAIN_2.thisRepN,TRAIN_2.thisTrialN,TRAIN_2.thisN,TRAIN_2.thisIndex,TRAIN_2.ran,img_path_base,ms_compare,sort_test_intro_mouse.x,sort_test_intro_mouse.y,sort_test_intro_mouse.leftButton,sort_test_intro_mouse.midButton,sort_test_intro_mouse.rightButton,sort_test_intro.tEnd,sort_test_scale_right.text,sort_test_scale_left.text,sort_test_res.text,sort_test_mouse.x,sort_test_mouse.y,sort_test_mouse.leftButton,sort_test_mouse.midButton,sort_test_mouse.rightButton,sort_test_input,sort_test_labels,sort_test_trace,sort_test_compare_records,sort_test_compareN,sort_test.tStart,sort_test.tEnd,TEST_2.thisRepN,TEST_2.thisTrialN,TEST_2.thisN,TEST_2.thisIndex,TEST_2.ran,exp_check_res.text,exp_check_mouse.x,exp_check_mouse.y,exp_check_mouse.leftButton,exp_check_mouse.midButton,exp_check_mouse.rightButton,exp_check.tEnd,debrief_mouse.x,debrief_mouse.y,debrief_mouse.leftButton,debrief_mouse.midButton,debrief_mouse.rightButton
0.015740741,-0.396296296,1,0,0,_18_24,bachelor,male,4.7512,0.047222222,-0.416666667,1,0,0,1.0308,0.037037037,-0.409259259,1,0,0,0.8248,0.034259259,-0.387037037,1,0,0,0.9496,,,0.516666667,-0.415740741,1,0,0,merge_train_btn_2,0.5058,"[0,1]",0,"[""'A'"",""'B'""]","[""4"",""2""]",[],"[""merge_train_btn_2""]",14.4416,0.418518519,-0.412962963,1,0,0,0.5026,28.5656,0,0,0,0,1,materials/merge_sort/imgs/merge_train/merge_train_ex_1.png,,,materials/merge_sort/imgs/merge_train/merge_train_ex_1_1_correct.png,materials/merge_sort/imgs/merge_train/merge_train_ex_1_1_wrong.png,000,001,2021-10-19_08h55.21.871,seq_teaching_exp,2021.2.3,Win32,119.3887297,,,,,,,,,,,,,,,,,,,,,,,,,,,,,,,,,,,,,,,,,,,,,,,,,,,,,,,,,,,,,,,,,,,,,,,,,,,,,,,,,,,,,,,,,,,,,,,,,,,,,,,
,,,,,,,,,,,,,,,,,,,,,,,,,,,D,B,0.472222222,-0.397222222,1,0,0,merge_train_btn_2,0.5008,"[1,0]",1,"[""'A'"",""'B'"",""'D'"",""'C'""]","[""1"",""4"",""2"",""3""]","[[""B"",""D""]]","[""merge_train_btn_2""]",25.3239,0.346296296,-0.423148148,1,0,0,0.5049,3.1801,0,1,1,1,1,materials/merge_sort/imgs/merge_train/merge_train_ex_2.png,,,materials/merge_sort/imgs/merge_train/merge_train_ex_2_1_correct.png,materials/merge_sort/imgs/merge_train/merge_train_ex_2_1_wrong.png,000,001,2021-10-19_08h55.21.871,seq_teaching_exp,2021.2.3,Win32,119.3887297,,,,,,,,,,,,,,,,,,,,,,,,,,,,,,,,,,,,,,,,,,,,,,,,,,,,,,,,,,,,,,,,,,,,,,,,,,,,,,,,,,,,,,,,,,,,,,,,,,,,,,,
,,,,,,,,,,,,,,,,,,,,,,,,,,,C,B,0.485185185,-0.378703704,1,0,0,merge_train_btn_2,0.5018,"[1,0]",1,"[""'A'"",""'B'"",""'D'"",""'C'""]","[""1"",""4"",""2"",""3""]","[[""B"",""C""]]","[""merge_train_btn_2""]",16.3045,0.360185185,-0.403703704,1,0,0,0.5074,1.766,0,2,2,2,1,materials/merge_sort/imgs/merge_train/merge_train_ex_2.png,,,materials/merge_sort/imgs/merge_train/merge_train_ex_2_2_correct.png,materials/merge_sort/imgs/merge_train/merge_train_ex_2_2_wrong.png,000,001,2021-10-19_08h55.21.871,seq_teaching_exp,2021.2.3,Win32,119.3887297,,,,,,,,,,,,,,,,,,,,,,,,,,,,,,,,,,,,,,,,,,,,,,,,,,,,,,,,,,,,,,,,,,,,,,,,,,,,,,,,,,,,,,,,,,,,,,,,,,,,,,,
,,,,,,,,,,,,,,,,,,,,,,,,,,,E,B,0.498148148,-0.394444444,1,0,0,merge_train_btn_2,0.5076,"[1,0]",1,"[""'C'"",""'D'"",""'B'"",""'A'"",""'G'"",""'E'"",""'F'""]","[""1"",""2"",""5"",""7"",""3"",""4"",""6""]","[[""B"",""E""]]","[""merge_train_btn_2""]",18.8941,0.372222222,-0.413888889,1,0,0,0.5076,3.2493,0,3,3,3,1,materials/merge_sort/imgs/merge_train/merge_train_ex_5.png,,,materials/merge_sort/imgs/merge_train/merge_train_ex_5_1_correct.png,materials/merge_sort/imgs/merge_train/merge_train_ex_5_1_wrong.png,000,001,2021-10-19_08h55.21.871,seq_teaching_exp,2021.2.3,Win32,119.3887297,,,,,,,,,,,,,,,,,,,,,,,,,,,,,,,,,,,,,,,,,,,,,,,,,,,,,,,,,,,,,,,,,,,,,,,,,,,,,,,,,,,,,,,,,,,,,,,,,,,,,,,
,,,,,,,,,,,,,,,,,,,,,,,,,,,B,F,0.500925926,-0.391666667,1,0,0,merge_train_btn_2,0.508,"[0,1]",1,"[""'C'"",""'D'"",""'B'"",""'A'"",""'G'"",""'E'"",""'F'""]","[""1"",""2"",""5"",""7"",""3"",""4"",""6""]","[[""F"",""B""]]","[""merge_train_btn_2""]",7.4922,0.362037037,-0.418518519,1,0,0,0.5079,6.6335,0,4,4,4,1,materials/merge_sort/imgs/merge_train/merge_train_ex_5.png,,,materials/merge_sort/imgs/merge_train/merge_train_ex_5_2_correct.png,materials/merge_sort/imgs/merge_train/merge_train_ex_5_2_wrong.png,000,001,2021-10-19_08h55.21.871,seq_teaching_exp,2021.2.3,Win32,119.3887297,,,,,,,,,,,,,,,,,,,,,,,,,,,,,,,,,,,,,,,,,,,,,,,,,,,,,,,,,,,,,,,,,,,,,,,,,,,,,,,,,,,,,,,,,,,,,,,,,,,,,,,
,,,,,,,,,,,,,,,,,,,,,,,,,,,F,A,0.509259259,-0.391666667,1,0,0,merge_train_btn_2,0.5012,"[0,1]",1,"[""'C'"",""'D'"",""'B'"",""'A'"",""'G'"",""'E'"",""'F'""]","[""1"",""2"",""5"",""7"",""3"",""4"",""6""]","[[""A"",""F""]]","[""merge_train_btn_2""]",10.5444,0.414814815,-0.403703704,1,0,0,0.5077,1.6749,0,5,5,5,1,materials/merge_sort/imgs/merge_train/merge_train_ex_5.png,,,materials/merge_sort/imgs/merge_train/merge_train_ex_5_3_correct.png,materials/merge_sort/imgs/merge_train/merge_train_ex_5_3_wrong.png,000,001,2021-10-19_08h55.21.871,seq_teaching_exp,2021.2.3,Win32,119.3887297,,,,,,,,,,,,,,,,,,,,,,,,,,,,,,,,,,,,,,,,,,,,,,,,,,,,,,,,,,,,,,,,,,,,,,,,,,,,,,,,,,,,,,,,,,,,,,,,,,,,,,,
,,,,,,,,,,,,,,,,,,,,,,,,,,,,,,,,,,,,,,,,,,,,,,,,,,,,,,,materials/merge_sort/imgs/merge_test/merge_test_ex_1.png,,,,,000,001,2021-10-19_08h55.21.871,seq_teaching_exp,2021.2.3,Win32,119.3887297,0.033333333,-0.402777778,1,0,0,10.5753,E,B,"C,A,D,E,B",0.443518519,-0.344444444,1,0,0,"[""1"",""2"",""5"",""3"",""4""]","[""'C'"",""'A'"",""'B'"",""'D'"",""'E'""]",7,"[[""C"",""A""],[""C"",""D""],[""C"",""E""],[""A"",""D""],[""A"",""E""],[""B"",""D""],[""B"",""E""]]",0.5064,58.7415,0,0,0,0,1,,,,,,,,,,,,,,,,,,,,,,,,,,,,,,,,,,,,,,,,,,,,,,,,,,,,,,,,,,,,,,,,,,,,,,,,,,,,,,
,,,,,,,,,,,,,,,,,,,,,,,,,,,,,,,,,,,,,,,,,,,,,,,,,,,,,,,materials/merge_sort/imgs/merge_test/merge_test_ex_2.png,,,,,000,001,2021-10-19_08h55.21.871,seq_teaching_exp,2021.2.3,Win32,119.3887297,,,,,,,A,B,"D,E,B,A,C",0.547222222,-0.367592593,1,0,0,"[""3"",""4"",""5"",""1"",""2""]","[""'B'"",""'A'"",""'C'"",""'D'"",""'E'""]",5,"[[""B"",""D""],[""B"",""E""],[""B"",""E""],[""B"",""E""],[""B"",""A""]]",0.5,29.95,0,1,1,1,1,,,,,,,,,,,,,,,,,,,,,,,,,,,,,,,,,,,,,,,,,,,,,,,,,,,,,,,,,,,,,,,,,,,,,,,,,,,,,,
,,,,,,,,,,,,,,,,,,,,,,,,,,,,,,,,,,,,,,,,,,,,,,,,,,,,,,,materials/merge_sort/imgs/merge_test/merge_test_ex_3.png,,,,,000,001,2021-10-19_08h55.21.871,seq_teaching_exp,2021.2.3,Win32,119.3887297,,,,,,,E,C,"F,D,A,E,C,B",0.484259259,-0.364814815,1,0,0,"[""3"",""5"",""6"",""1"",""2"",""4""]","[""'A'"",""'C'"",""'B'"",""'F'"",""'D'"",""'E'""]",4,"[[""A"",""F""],[""C"",""F""],[""A"",""E""],[""C"",""E""]]",0.5063,47.2723,0,2,2,2,1,,,,,,,,,,,,,,,,,,,,,,,,,,,,,,,,,,,,,,,,,,,,,,,,,,,,,,,,,,,,,,,,,,,,,,,,,,,,,,
,,,,,,,,,,,,,,,,,,,,,,,,,,,,,,,,,,,,,,,,,,,,,,,,,,,,,,,materials/merge_sort/imgs/merge_test/merge_test_ex_4.png,,,,,000,001,2021-10-19_08h55.21.871,seq_teaching_exp,2021.2.3,Win32,119.3887297,,,,,,,F,A,"E,D,B,G,C,F,A",0.526851852,-0.355555556,1,0,0,"[""2"",""3"",""5"",""7"",""1"",""4"",""6""]","[""'D'"",""'B'"",""'C'"",""'A'"",""'E'"",""'G'"",""'F'""]",6,"[[""D"",""E""],[""D"",""G""],[""B"",""G""],[""C"",""G""],[""C"",""F""],[""A"",""F""]]",0.503,54.5118,0,3,3,3,1,,,,,,,,,,,,,,,,,,,,,,,,,,,,,,,,,,,,,,,,,,,,,,,,,,,,,,,,,,,,,,,,,,,,,,,,,,,,,,
,,,,,,,,,,,,,,,,,,,,,,,,,,,,,,,,,,,,,,,,,,,,,,,,,,,,,,,materials/merge_sort/imgs/merge_test/merge_test_ex_5.png,,,,,000,001,2021-10-19_08h55.21.871,seq_teaching_exp,2021.2.3,Win32,119.3887297,,,,,,,F,D,"C,E,G,A,B,D,F",0.566666667,-0.375925926,1,0,0,"[""1"",""4"",""5"",""6"",""2"",""3"",""7""]","[""'C'"",""'A'"",""'B'"",""'D'"",""'E'"",""'G'"",""'F'""]",6,"[[""C"",""E""],[""A"",""E""],[""A"",""G""],[""A"",""F""],[""B"",""F""],[""D"",""F""]]",0.5076,41.2478,0,4,4,4,1,,,,,,,,,,,,,,,,,,,,,,,,,,,,,,,,,,,,,,,,,,,,,,,,,,,,,,,,,,,,,,,,,,,,,,,,,,,,,,
,,,,,,,,,,,,,,,,,,,,,,,,,,,,,,,,,,,,,,,,,,,,,,,,,,,,,,,,,,,,000,001,2021-10-19_08h55.21.871,seq_teaching_exp,2021.2.3,Win32,119.3887297,,,,,,,,,,,,,,,,,,,,,,,,,,0.00462963,-0.409259259,1,0,0,45.3598,A,E,CDABEF,-0.80462963,0.37037037,0,0,0,"[""5"",""4"",""6"",""3"",""1"",""2""]","[""'A'"",""'D'"",""'B'"",""'C'"",""'E'"",""'F'""]","[[""2"",-0.21666666666666667,0.30092592592592593],[""2"",-0.3425925925925926,0.29814814814814816],[""3"",-0.13148148148148148,0.287962962962963],[""3"",-0.13796296296296295,0.11574074074074074],[""3"",-0.13703703703703704,0.17222222222222222],[""3"",-0.13796296296296295,0.26481481481481484],[""3"",-0.14907407407407408,0.2916666666666667],[""3"",-0.15462962962962962,0.29444444444444445],[""3"",-0.15555555555555556,0.2953703703703704],[""2"",-0.38425925925925924,0.3175925925925926],[""2"",-0.38981481481481484,0.33055555555555555],[""2"",-0.3675925925925926,0.3435185185185185],[""2"",-0.28055555555555556,0.3851851851851852],[""2"",-0.25925925925925924,0.3925925925925926],[""2"",-0.387037037037037,0.37407407407407406],[""2"",-0.39444444444444443,0.3787037037037037],[""2"",-0.2722222222222222,0.3712962962962963],[""2"",-0.26944444444444443,0.33240740740740743],[""2"",-0.30277777777777776,0.30092592592592593],[""2"",-0.3138888888888889,0.29907407407407405],[""1"",-0.24351851851851852,0.3037037037037037],[""1"",-0.24074074074074073,0.30185185185185187],[""1"",-0.23425925925925925,0.30648148148148147],[""1"",-0.22962962962962963,0.3],[""2"",-0.32037037037037036,0.26666666666666666],[""2"",-0.31203703703703706,-0.044444444444444446],[""2"",-0.29907407407407405,0.08425925925925926],[""2"",-0.3055555555555556,0.23425925925925925],[""2"",-0.30277777777777776,0.28888888888888886],[""2"",-0.30277777777777776,0.29259259259259257],[""1"",-0.23333333333333334,0.29907407407407405],[""1"",-0.2324074074074074,0.2953703703703704],[""4"",-0.14629629629629629,0.2972222222222222],[""4"",-0.2,0.2935185185185185],[""4"",-0.2037037037037037,0.2953703703703704],[""4"",-0.20277777777777778,0.2953703703703704],[""3"",-0.16018518518518518,0.2962962962962963],[""3"",-0.16018518518518518,0.29444444444444445],[""3"",-0.15833333333333333,0.29814814814814816],[""4"",-0.18888888888888888,0.2972222222222222],[""4"",-0.18703703703703703,0.29814814814814816],[""4"",-0.19907407407407407,0.3055555555555556],[""4"",-0.2564814814814815,0.30277777777777776],[""4"",-0.2601851851851852,0.30277777777777776],[""4"",-0.23055555555555557,0.30185185185185187],[""4"",-0.2111111111111111,0.3055555555555556],[""4"",-0.23425925925925925,0.29907407407407405],[""4"",-0.24259259259259258,0.30462962962962964],[""4"",-0.24444444444444444,0.30462962962962964],[""4"",-0.2101851851851852,0.30185185185185187],[""4"",-0.2037037037037037,0.30185185185185187],[""1"",-0.2361111111111111,0.29907407407407405],[""1"",-0.24814814814814815,0.30462962962962964],[""1"",-0.2518518518518518,0.3055555555555556],[""1"",-0.2537037037037037,0.3],[""1"",-0.25277777777777777,0.29814814814814816],[""4"",-0.21574074074074073,0.31574074074074077],[""4"",-0.2657407407407407,0.30648148148148147],[""4"",-0.28703703703703703,0.3037037037037037],[""1"",-0.2518518518518518,0.30277777777777776],[""1"",-0.22037037037037038,0.3037037037037037],[""2"",-0.26666666666666666,0.30277777777777776],[""2"",-0.2638888888888889,0.30277777777777776],[""2"",-0.2638888888888889,0.30185185185185187],[""2"",-0.3074074074074074,0.3],[""2"",-0.32314814814814813,0.30092592592592593],[""2"",-0.3277777777777778,0.30185185185185187],[""2"",-0.3351851851851852,0.30277777777777776],[""2"",-0.3351851851851852,0.3037037037037037],[""4"",-0.2953703703703704,0.30462962962962964],[""4"",-0.37592592592592594,0.2962962962962963],[""2"",-0.3287037037037037,0.30462962962962964],[""2"",-0.28055555555555556,0.3037037037037037],[""4"",-0.36203703703703705,0.30092592592592593],[""4"",-0.32037037037037036,0.3037037037037037],[""4"",-0.31666666666666665,0.30462962962962964],[""4"",-0.32037037037037036,0.30462962962962964],[""4"",-0.32592592592592595,0.30277777777777776],[""5"",-0.06944444444444445,0.29814814814814816],[""5"",-0.10925925925925926,0.2898148148148148],[""5"",-0.11944444444444445,0.29814814814814816],[""5"",-0.11944444444444445,0.29907407407407405],[""6"",-0.05092592592592592,0.3],[""6"",-0.0824074074074074,0.30185185185185187],[""6"",-0.08148148148148149,0.30277777777777776],[""6"",-0.075,0.30277777777777776],[""6"",-0.0712962962962963,0.30185185185185187],[""3"",-0.14814814814814814,0.31296296296296294],[""3"",-0.1259259259259259,0.3148148148148148],[""3"",-0.03425925925925926,0.3175925925925926],[""3"",-0.013888888888888888,0.30833333333333335],[""3"",-0.012037037037037037,0.30092592592592593],[""4"",-0.3398148148148148,0.3148148148148148],[""1"",-0.16296296296296298,0.30925925925925923],[""4"",-0.25833333333333336,0.3101851851851852],[""5"",0.037037037037037035,0.30185185185185187],[""5"",0.1,0.30092592592592593],[""5"",0.09444444444444444,0.3],[""5"",0.08611111111111111,0.29814814814814816],[""5"",0.07407407407407407,0.2953703703703704],[""5"",0.07314814814814814,0.2953703703703704],[""5"",0.009259259259259259,0.2972222222222222],[""5"",-0.10833333333333334,0.30925925925925923],[""5"",-0.13055555555555556,0.3101851851851852],[""5"",-0.125,0.3101851851851852],[""2"",-0.17407407407407408,0.3074074074074074],[""2"",-0.16574074074074074,0.3055555555555556],[""2"",-0.26666666666666666,0.2916666666666667],[""2"",-0.29907407407407405,0.2916666666666667],[""2"",-0.30277777777777776,0.28055555555555556],[""2"",-0.30277777777777776,0.2796296296296296],[""4"",-0.25092592592592594,0.31296296296296294],[""4"",-0.2,0.2796296296296296],[""4"",-0.1037037037037037,0.23703703703703705],[""4"",0.03796296296296296,0.24444444444444444],[""4"",0.058333333333333334,0.2740740740740741],[""4"",0.05185185185185185,0.29259259259259257],[""4"",0.04722222222222222,0.2935185185185185],[""4"",0.04537037037037037,0.30092592592592593],[""4"",0.04537037037037037,0.30185185185185187],[""1"",-0.17407407407407408,0.31203703703703706],[""1"",-0.2101851851851852,0.29814814814814816],[""1"",-0.2111111111111111,0.29444444444444445],[""5"",-0.1425925925925926,0.31296296296296294],[""5"",-0.15,0.2916666666666667],[""5"",-0.1574074074074074,0.28055555555555556],[""6"",-0.08796296296296297,0.2824074074074074],[""6"",-0.08888888888888889,0.28055555555555556],[""3"",-0.023148148148148147,0.2953703703703704],[""3"",-0.024074074074074074,0.29259259259259257],[""3"",-0.025925925925925925,0.2833333333333333],[""3"",-0.025925925925925925,0.2814814814814815],[""3"",-0.027777777777777776,0.287962962962963],[""3"",0.16203703703703703,0.2796296296296296],[""3"",0.13240740740740742,0.2777777777777778],[""3"",0.12777777777777777,0.2777777777777778],[""4"",0.022222222222222223,0.2796296296296296],[""4"",0.019444444444444445,0.27314814814814814],[""4"",0.023148148148148147,0.2722222222222222],[""1"",-0.2101851851851852,0.2972222222222222],[""1"",-0.1935185185185185,0.36666666666666664],[""1"",0.019444444444444445,0.3685185185185185],[""1"",0.09074074074074075,0.3037037037037037],[""1"",0.09351851851851851,0.2796296296296296],[""1"",0.08611111111111111,0.27314814814814814],[""1"",0.07962962962962963,0.2759259259259259],[""2"",-0.3037037037037037,0.2898148148148148],[""2"",-0.21203703703703702,0.362962962962963],[""2"",0.002777777777777778,0.36944444444444446],[""2"",0.07222222222222222,0.3296296296296296],[""2"",0.16944444444444445,0.3055555555555556],[""2"",0.19537037037037036,0.28055555555555556],[""2"",0.1925925925925926,0.26851851851851855],[""2"",0.1962962962962963,0.2777777777777778],[""2"",0.1962962962962963,0.2861111111111111],[""2"",0.19537037037037036,0.2861111111111111],[""2"",0.19537037037037036,0.28425925925925927],[""2"",0.19537037037037036,0.2833333333333333],[""2"",0.19444444444444445,0.28055555555555556],[""2"",0.1935185185185185,0.28055555555555556],[""2"",0.19074074074074074,0.27685185185185185],[""4"",0.009259259259259259,0.2824074074074074],[""4"",-0.017592592592592594,0.2777777777777778],[""4"",-0.017592592592592594,0.27685185185185185],[""2"",0.19907407407407407,0.2824074074074074],[""2"",0.07962962962962963,0.28055555555555556],[""2"",0.03333333333333333,0.27314814814814814],[""2"",0.027777777777777776,0.2759259259259259],[""2"",0.03148148148148148,0.28055555555555556]]",21,0.5004,239.9981,"[[""D"",""A""],[""B"",""A""],[""B"",""C""],[""A"",""C""],[""D"",""C""],[""E"",""B""],[""E"",""F""],[""B"",""A""],[""F"",""C""],[""E"",""C""],[""B"",""C""],[""B"",""E""],[""B"",""F""],[""B"",""A""],[""B"",""D""],[""B"",""C""],[""E"",""C""],[""F"",""C""],[""A"",""C""],[""D"",""C""],[""D"",""A""]]",,,0.573148148,-0.337037037,1,0,0,[],0,[],0.5044,11.0228,0,0,0,0,1,materials/merge_sort/imgs/fruits/apple,8,,,,,,,,,,,,,,,,,,,,,,,,,,,,,,,,,,,,,,
,,,,,,,,,,,,,,,,,,,,,,,,,,,,,,,,,,,,,,,,,,,,,,,,,,,,,,,,,,,,000,001,2021-10-19_08h55.21.871,seq_teaching_exp,2021.2.3,Win32,119.3887297,,,,,,,,,,,,,,,,,,,,,,,,,,,,,,,,B,G,GBFEACD,0.482407407,-0.360185185,1,0,0,"[""6"",""2"",""4"",""7"",""5"",""3"",""1""]","[""'C'"",""'B'"",""'E'"",""'D'"",""'A'"",""'F'"",""'G'""]","[[""1"",-0.23148148148148148,0.2388888888888889],[""1"",-0.14907407407407408,0.2324074074074074],[""7"",0.044444444444444446,0.23981481481481481],[""7"",0.028703703703703703,0.23148148148148148],[""1"",-0.15648148148148147,0.23796296296296296],[""1"",-0.1388888888888889,0.2101851851851852],[""1"",-0.13518518518518519,0.19814814814814816],[""1"",-0.14814814814814814,0.17962962962962964],[""1"",-0.16574074074074074,0.1787037037037037],[""1"",-0.1824074074074074,0.20092592592592592],[""1"",-0.1814814814814815,0.2101851851851852],[""7"",0.026851851851851852,0.23333333333333334],[""7"",0.05648148148148148,0.2722222222222222],[""7"",0.05925925925925926,0.2972222222222222],[""7"",0.05925925925925926,0.3],[""1"",-0.1814814814814815,0.2037037037037037],[""1"",-0.14351851851851852,0.22592592592592592],[""1"",-0.1175925925925926,0.2722222222222222],[""1"",-0.12129629629629629,0.29907407407407405],[""1"",-0.125,0.3055555555555556],[""1"",-0.12777777777777777,0.3055555555555556],[""1"",-0.12685185185185185,0.3055555555555556],[""1"",-0.1259259259259259,0.3055555555555556],[""2"",-0.2074074074074074,0.30462962962962964],[""2"",-0.27314814814814814,0.30277777777777776],[""2"",-0.2777777777777778,0.30277777777777776],[""3"",-0.2074074074074074,0.2962962962962963],[""3"",-0.2462962962962963,0.2962962962962963],[""3"",-0.22777777777777777,0.30833333333333335],[""3"",-0.22314814814814815,0.3101851851851852],[""1"",-0.1537037037037037,0.30833333333333335],[""1"",-0.17962962962962964,0.30833333333333335],[""1"",-0.17592592592592593,0.3175925925925926],[""1"",-0.15092592592592594,0.3194444444444444],[""1"",-0.14907407407407408,0.31296296296296294],[""1"",-0.14907407407407408,0.3074074074074074],[""1"",-0.14814814814814814,0.30648148148148147],[""5"",-0.0712962962962963,0.30185185185185187],[""5"",-0.14907407407407408,0.3111111111111111],[""5"",-0.18703703703703703,0.31296296296296294],[""5"",-0.18611111111111112,0.31296296296296294],[""5"",-0.18425925925925926,0.31203703703703706],[""1"",-0.1111111111111111,0.31296296296296294],[""1"",-0.06666666666666667,0.3175925925925926],[""1"",-0.05648148148148148,0.31574074074074077],[""1"",-0.05648148148148148,0.3138888888888889],[""4"",-0.03981481481481482,0.3175925925925926],[""4"",0.002777777777777778,0.32037037037037036],[""4"",0.003703703703703704,0.32037037037037036],[""6"",-0.006481481481481481,0.2564814814814815],[""6"",-0.013888888888888888,0.24537037037037038],[""6"",-0.08611111111111111,0.262037037037037],[""6"",-0.12037037037037036,0.29907407407407405],[""6"",-0.125,0.30833333333333335],[""6"",-0.13055555555555556,0.3111111111111111],[""7"",0.06481481481481481,0.2935185185185185],[""7"",-0.06111111111111111,0.2814814814814815],[""7"",-0.10277777777777777,0.3138888888888889],[""7"",-0.10092592592592593,0.3212962962962963],[""7"",-0.09351851851851851,0.3212962962962963],[""7"",-0.09259259259259259,0.3212962962962963],[""7"",-0.08981481481481482,0.3212962962962963],[""7"",-0.09166666666666666,0.32037037037037036],[""5"",-0.17592592592592593,0.3055555555555556],[""5"",-0.13240740740740742,0.25555555555555554],[""5"",-0.1287037037037037,0.25092592592592594],[""6"",-0.16296296296296298,0.30833333333333335],[""6"",-0.16574074074074074,0.3074074074074074],[""5"",-0.12777777777777777,0.30648148148148147],[""5"",-0.12777777777777777,0.3148148148148148],[""6"",-0.18518518518518517,0.31296296296296294],[""6"",-0.2111111111111111,0.31296296296296294],[""6"",-0.23981481481481481,0.3138888888888889],[""6"",-0.24351851851851852,0.3138888888888889],[""6"",-0.2175925925925926,0.31574074074074077],[""6"",-0.18981481481481483,0.3194444444444444],[""6"",-0.18611111111111112,0.3194444444444444],[""6"",-0.18796296296296297,0.3194444444444444],[""6"",-0.2175925925925926,0.31851851851851853],[""6"",-0.2388888888888889,0.31851851851851853],[""6"",-0.24074074074074073,0.31851851851851853],[""6"",-0.24259259259259258,0.3175925925925926],[""6"",-0.24537037037037038,0.31574074074074077],[""6"",-0.24722222222222223,0.3148148148148148],[""3"",-0.20555555555555555,0.3138888888888889],[""3"",-0.18425925925925926,0.3175925925925926],[""2"",-0.2462962962962963,0.31666666666666665],[""2"",-0.24444444444444444,0.31666666666666665],[""2"",-0.2712962962962963,0.3148148148148148],[""2"",-0.29814814814814816,0.3148148148148148],[""7"",-0.09351851851851851,0.32314814814814813],[""7"",-0.11944444444444445,0.3194444444444444],[""7"",-0.14166666666666666,0.31666666666666665],[""7"",-0.1574074074074074,0.3148148148148148],[""5"",-0.09907407407407408,0.3148148148148148],[""5"",-0.0962962962962963,0.3148148148148148],[""7"",-0.1425925925925926,0.31574074074074077],[""7"",-0.1361111111111111,0.31666666666666665],[""7"",-0.1388888888888889,0.3175925925925926],[""7"",-0.16111111111111112,0.3148148148148148],[""7"",-0.18888888888888888,0.30925925925925923],[""7"",-0.19166666666666668,0.30925925925925923],[""7"",-0.21666666666666667,0.31203703703703706],[""3"",-0.13703703703703704,0.32222222222222224],[""3"",-0.12962962962962962,0.32222222222222224],[""3"",-0.14629629629629629,0.31574074074074077],[""3"",-0.15925925925925927,0.3138888888888889],[""6"",-0.21481481481481482,0.31666666666666665],[""6"",-0.2037037037037037,0.3194444444444444],[""6"",-0.20555555555555555,0.3175925925925926],[""6"",-0.21481481481481482,0.31574074074074077],[""6"",-0.2388888888888889,0.3138888888888889],[""6"",-0.24814814814814815,0.31296296296296294],[""6"",-0.2490740740740741,0.31296296296296294],[""6"",-0.25462962962962965,0.31574074074074077],[""6"",-0.24351851851851852,0.2962962962962963],[""6"",-0.2101851851851852,0.24351851851851852],[""6"",-0.2101851851851852,0.24259259259259258],[""7"",-0.22685185185185186,0.31574074074074077],[""7"",-0.24814814814814815,0.3074074074074074],[""6"",-0.2064814814814815,0.30648148148148147],[""6"",-0.2064814814814815,0.3175925925925926],[""7"",-0.27870370370370373,0.28703703703703703],[""7"",-0.3509259259259259,0.30277777777777776],[""7"",-0.35,0.31296296296296294],[""2"",-0.29074074074074074,0.31574074074074077],[""2"",-0.2740740740740741,0.3148148148148148],[""2"",-0.2740740740740741,0.3138888888888889],[""7"",-0.3425925925925926,0.3175925925925926],[""7"",-0.3296296296296296,0.31203703703703706]]",15,0.5104,157.5886,"[[""C"",""B""],[""C"",""E""],[""C"",""D""],[""E"",""B""],[""C"",""A""],[""C"",""F""],[""C"",""G""],[""A"",""E""],[""F"",""A""],[""F"",""E""],[""F"",""B""],[""G"",""A""],[""G"",""E""],[""G"",""F""],[""G"",""B""]]",,,0.468518519,-0.34537037,1,0,0,[],0,[],0.5004,20.6537,0,1,1,1,1,materials/merge_sort/imgs/fruits/banana,12,,,,,,,,,,,,,,,,,,,,,,,,,,,,,,,,,,,,,,
,,,,,,,,,,,,,,,,,,,,,,,,,,,,,,,,,,,,,,,,,,,,,,,,,,,,,,,,,,,,000,001,2021-10-19_08h55.21.871,seq_teaching_exp,2021.2.3,Win32,119.3887297,,,,,,,,,,,,,,,,,,,,,,,,,,,,,,,,A,B,CHDFEABG,0.506481481,-0.353703704,1,0,0,"[""7"",""6"",""5"",""8"",""4"",""3"",""2"",""1""]","[""'B'"",""'A'"",""'E'"",""'G'"",""'F'"",""'D'"",""'H'"",""'C'""]","[[""2"",-0.22962962962962963,0.2740740740740741],[""2"",-0.2851851851851852,0.2657407407407407],[""2"",-0.31296296296296294,0.2675925925925926],[""2"",-0.30925925925925923,0.2953703703703704],[""2"",-0.30833333333333335,0.29907407407407405],[""1"",-0.23703703703703705,0.30648148148148147],[""1"",-0.19537037037037036,0.3101851851851852],[""1"",-0.1925925925925926,0.30925925925925923],[""1"",-0.18888888888888888,0.30277777777777776],[""3"",-0.1712962962962963,0.29907407407407405],[""3"",-0.21666666666666667,0.3],[""3"",-0.2462962962962963,0.3037037037037037],[""4"",-0.09814814814814815,0.30277777777777776],[""4"",-0.10092592592592593,0.30277777777777776],[""4"",-0.11944444444444445,0.3],[""4"",-0.13148148148148148,0.3],[""5"",-0.15555555555555556,0.3101851851851852],[""5"",-0.21574074074074073,0.3138888888888889],[""5"",-0.2175925925925926,0.31296296296296294],[""5"",-0.21666666666666667,0.30277777777777776],[""5"",-0.2175925925925926,0.3037037037037037],[""2"",-0.3194444444444444,0.30648148148148147],[""2"",-0.34074074074074073,0.30277777777777776],[""2"",-0.3416666666666667,0.30277777777777776],[""3"",-0.2833333333333333,0.30648148148148147],[""3"",-0.31203703703703706,0.30462962962962964],[""1"",-0.2833333333333333,0.30092592592592593],[""1"",-0.2824074074074074,0.30462962962962964],[""1"",-0.2824074074074074,0.3074074074074074],[""1"",-0.2175925925925926,0.31203703703703706],[""1"",-0.1925925925925926,0.31203703703703706],[""1"",-0.175,0.3101851851851852],[""1"",-0.175,0.30925925925925923],[""5"",-0.2222222222222222,0.3111111111111111],[""5"",-0.25462962962962965,0.3101851851851852],[""5"",-0.26851851851851855,0.30833333333333335],[""5"",-0.27037037037037037,0.30833333333333335],[""6"",-0.03796296296296296,0.30648148148148147],[""6"",-0.1814814814814815,0.30833333333333335],[""6"",-0.21851851851851853,0.30833333333333335],[""6"",-0.23148148148148148,0.3138888888888889],[""1"",-0.1685185185185185,0.3138888888888889],[""1"",-0.04537037037037037,0.31203703703703706],[""1"",-0.025,0.3138888888888889],[""4"",-0.001851851851851852,0.32407407407407407],[""4"",0.020370370370370372,0.32592592592592595],[""4"",0.018518518518518517,0.32592592592592595],[""7"",-0.000925925925925926,0.30092592592592593],[""7"",-0.1388888888888889,0.3074074074074074],[""7"",-0.1824074074074074,0.3194444444444444],[""7"",-0.18333333333333332,0.3194444444444444],[""8"",-0.020370370370370372,0.31851851851851853],[""8"",-0.10555555555555556,0.32314814814814813],[""8"",-0.1287037037037037,0.32592592592592595],[""8"",-0.12962962962962962,0.32592592592592595],[""1"",-0.041666666666666664,0.3296296296296296],[""1"",-0.0712962962962963,0.3416666666666667],[""4"",0,0.3509259259259259],[""4"",-0.003703703703703704,0.35185185185185186],[""8"",-0.1685185185185185,0.32685185185185184],[""8"",-0.2,0.32407407407407407],[""8"",-0.17037037037037037,0.3287037037037037],[""8"",-0.12962962962962962,0.33425925925925926],[""8"",-0.1962962962962963,0.325],[""8"",-0.20462962962962963,0.32314814814814813],[""7"",-0.16203703703703703,0.32314814814814813],[""7"",-0.1425925925925926,0.32685185185185184],[""7"",-0.13796296296296295,0.3277777777777778],[""8"",-0.17777777777777778,0.32685185185185184],[""8"",-0.175,0.32592592592592595],[""8"",-0.18055555555555555,0.32407407407407407],[""8"",-0.18055555555555555,0.32222222222222224],[""8"",-0.17962962962962964,0.32222222222222224],[""8"",-0.1787037037037037,0.32222222222222224],[""8"",-0.18888888888888888,0.33425925925925926],[""8"",-0.25092592592592594,0.32314814814814813],[""8"",-0.26296296296296295,0.31574074074074077],[""8"",-0.23148148148148148,0.3175925925925926],[""8"",-0.18703703703703703,0.32222222222222224],[""8"",-0.2175925925925926,0.3194444444444444],[""8"",-0.25092592592592594,0.3175925925925926],[""6"",-0.2101851851851852,0.32037037037037036],[""6"",-0.18796296296296297,0.32407407407407407],[""6"",-0.17407407407407408,0.3277777777777778],[""6"",-0.175,0.3277777777777778],[""5"",-0.22037037037037038,0.32222222222222224],[""5"",-0.22962962962962963,0.3194444444444444],[""5"",-0.26481481481481484,0.31666666666666665],[""5"",-0.2972222222222222,0.3138888888888889],[""5"",-0.29814814814814816,0.3138888888888889],[""8"",-0.23148148148148148,0.32685185185185184],[""8"",-0.2351851851851852,0.325],[""8"",-0.2351851851851852,0.32407407407407407],[""3"",-0.2759259259259259,0.3175925925925926],[""3"",-0.275,0.31574074074074077],[""3"",-0.2814814814814815,0.31296296296296294],[""3"",-0.3212962962962963,0.3111111111111111],[""3"",-0.32222222222222224,0.3111111111111111],[""3"",-0.2953703703703704,0.31851851851851853],[""3"",-0.2814814814814815,0.31851851851851853],[""3"",-0.2851851851851852,0.31851851851851853],[""3"",-0.30092592592592593,0.31574074074074077],[""6"",-0.17777777777777778,0.3314814814814815],[""6"",-0.1425925925925926,0.33611111111111114],[""6"",-0.12222222222222222,0.3388888888888889],[""6"",-0.11481481481481481,0.3398148148148148],[""7"",-0.16111111111111112,0.325],[""7"",-0.18611111111111112,0.325],[""6"",-0.14444444444444443,0.3296296296296296],[""6"",-0.15648148148148147,0.325],[""6"",-0.1537037037037037,0.325],[""6"",-0.14907407407407408,0.32592592592592595],[""8"",-0.2324074074074074,0.3314814814814815],[""8"",-0.23055555555555557,0.33055555555555555],[""3"",-0.2898148148148148,0.32592592592592595],[""3"",-0.2777777777777778,0.3287037037037037],[""3"",-0.26666666666666666,0.3314814814814815],[""3"",-0.2657407407407407,0.3314814814814815],[""3"",-0.26944444444444443,0.32685185185185184],[""3"",-0.24074074074074073,0.3453703703703704],[""3"",-0.287962962962963,0.33240740740740743],[""3"",-0.2972222222222222,0.3277777777777778],[""3"",-0.27870370370370373,0.3212962962962963],[""3"",-0.2518518518518518,0.3101851851851852],[""3"",-0.21574074074074073,0.32592592592592595],[""3"",-0.20925925925925926,0.3333333333333333],[""3"",-0.25,0.31203703703703706],[""3"",-0.25462962962962965,0.30925925925925923],[""3"",-0.23981481481481481,0.3138888888888889],[""3"",-0.225,0.29259259259259257],[""3"",-0.20925925925925926,0.24259259259259258],[""3"",-0.19814814814814816,0.20092592592592592],[""3"",-0.19814814814814816,0.19444444444444445],[""7"",-0.17685185185185184,0.26296296296296295],[""7"",-0.15555555555555556,0.19814814814814816],[""7"",-0.15462962962962962,0.19074074074074074],[""6"",-0.11944444444444445,0.23425925925925925],[""6"",-0.09814814814814815,0.1712962962962963],[""6"",-0.09722222222222222,0.1638888888888889],[""8"",-0.2351851851851852,0.24722222222222223],[""8"",-0.25277777777777777,0.18425925925925926],[""8"",-0.25277777777777777,0.1824074074074074],[""6"",-0.10185185185185185,0.18888888888888888],[""6"",-0.10277777777777777,0.20185185185185187],[""1"",-0.05925925925925926,0.19907407407407407],[""1"",-0.05740740740740741,0.19537037037037036],[""4"",0.004629629629629629,0.31574074074074077],[""4"",0.009259259259259259,0.19722222222222222],[""4"",0.008333333333333333,0.18518518518518517],[""7"",-0.16018518518518518,0.19722222222222222],[""7"",-0.21481481481481482,0.19166666666666668],[""3"",-0.18055555555555555,0.2],[""3"",-0.1574074074074074,0.19814814814814816],[""3"",-0.15648148148148147,0.19814814814814816],[""6"",-0.1527777777777778,0.1962962962962963],[""6"",-0.18981481481481483,0.19722222222222222],[""6"",-0.19166666666666668,0.19722222222222222],[""3"",-0.1425925925925926,0.2074074074074074],[""3"",-0.11851851851851852,0.20925925925925926],[""6"",-0.1814814814814815,0.20185185185185187],[""6"",-0.16296296296296298,0.20185185185185187],[""8"",-0.2601851851851852,0.19166666666666668],[""8"",-0.26296296296296295,0.2064814814814815],[""7"",-0.20833333333333334,0.21296296296296297],[""7"",-0.20833333333333334,0.21481481481481482],[""5"",-0.2898148148148148,0.3175925925925926],[""5"",-0.2175925925925926,0.262037037037037],[""5"",-0.1675925925925926,0.23333333333333334],[""5"",-0.1425925925925926,0.21666666666666667],[""5"",-0.1398148148148148,0.20833333333333334],[""2"",-0.22777777777777777,0.28888888888888886],[""1"",-0.062037037037037036,0.2212962962962963],[""1"",-0.07592592592592592,0.22777777777777777],[""1"",-0.07037037037037037,0.24351851851851852],[""1"",-0.03518518518518519,0.21388888888888888],[""1"",-0.03611111111111111,0.21388888888888888],[""2"",-0.12962962962962962,0.2796296296296296],[""2"",-0.08981481481481482,0.24814814814814815],[""2"",-0.08148148148148149,0.2324074074074074],[""2"",-0.08148148148148149,0.225]]",23,0.5,197.8176,"[[""B"",""A""],[""B"",""E""],[""B"",""G""],[""B"",""F""],[""B"",""D""],[""B"",""H""],[""B"",""C""],[""H"",""C""],[""D"",""C""],[""D"",""H""],[""E"",""C""],[""E"",""H""],[""E"",""D""],[""F"",""C""],[""F"",""H""],[""F"",""D""],[""F"",""E""],[""C"",""A""],[""H"",""A""],[""D"",""A""],[""F"",""A""],[""E"",""A""],[""B"",""A""]]",,,0.47037037,-0.35462963,1,0,0,[],0,[],0.5027,18.031,0,2,2,2,1,materials/merge_sort/imgs/fruits/apple,13,,,,,,,,,,,,,,,,,,,,,,,,,,,,,,,,,,,,,,
,,,,,,,,,,,,,,,,,,,,,,,,,,,,,,,,,,,,,,,,,,,,,,,,,,,,,,,,,,,,000,001,2021-10-19_08h55.21.871,seq_teaching_exp,2021.2.3,Win32,119.3887297,,,,,,,,,,,,,,,,,,,,,,,,,,,,,,,,I,J,"D,I,J,E,A,C,B,G,F,H",0.501851852,-0.325925926,1,0,0,"[""8"",""6"",""4"",""3"",""2"",""10"",""9"",""7"",""1"",""5""]","[""'G'"",""'C'"",""'E'"",""'J'"",""'I'"",""'H'"",""'F'"",""'B'"",""'D'"",""'A'""]","[[""2"",-0.2111111111111111,0.29259259259259257],[""2"",-0.2953703703703704,0.27037037037037037],[""2"",-0.31574074074074077,0.2962962962962963],[""1"",-0.21481481481481482,0.2898148148148148],[""1"",-0.175,0.2972222222222222],[""1"",-0.17314814814814813,0.29907407407407405],[""3"",-0.15833333333333333,0.27870370370370373],[""3"",-0.2074074074074074,0.29259259259259257],[""3"",-0.2351851851851852,0.30648148148148147],[""1"",-0.17777777777777778,0.31203703703703706],[""1"",-0.13796296296296295,0.30925925925925923],[""1"",-0.10092592592592593,0.3148148148148148],[""1"",-0.08796296296296297,0.3175925925925926],[""4"",-0.11666666666666667,0.2675925925925926],[""4"",-0.15833333333333333,0.2712962962962963],[""4"",-0.175,0.29814814814814816],[""4"",-0.175,0.3],[""1"",-0.10925925925925926,0.3101851851851852],[""1"",-0.12037037037037036,0.29907407407407405],[""1"",-0.12222222222222222,0.29074074074074074],[""5"",-0.037037037037037035,0.30185185185185187],[""5"",-0.15648148148148147,0.30277777777777776],[""5"",-0.12222222222222222,0.29259259259259257],[""5"",-0.08796296296296297,0.29444444444444445],[""5"",-0.07685185185185185,0.2972222222222222],[""1"",-0.06574074074074074,0.30185185185185187],[""1"",-0.044444444444444446,0.30462962962962964],[""5"",-0.09444444444444444,0.2861111111111111],[""5"",-0.11018518518518519,0.2824074074074074],[""5"",-0.1175925925925926,0.2972222222222222],[""5"",-0.1175925925925926,0.29814814814814816],[""1"",-0.04351851851851852,0.30277777777777776],[""1"",-0.053703703703703705,0.2962962962962963],[""1"",-0.05555555555555555,0.2962962962962963],[""1"",-0.058333333333333334,0.2953703703703704],[""8"",0.019444444444444445,0.3101851851851852],[""8"",-0.062037037037037036,0.32037037037037036],[""8"",-0.08333333333333333,0.3138888888888889],[""8"",-0.08703703703703704,0.29814814814814816],[""7"",0.09351851851851851,0.30833333333333335],[""6"",0.049074074074074076,0.30833333333333335],[""1"",-0.027777777777777776,0.30648148148148147],[""1"",-0.013888888888888888,0.30833333333333335],[""8"",-0.06574074074074074,0.30648148148148147],[""8"",-0.05277777777777778,0.30833333333333335],[""8"",-0.05555555555555555,0.3111111111111111],[""8"",-0.058333333333333334,0.30925925925925923],[""9"",0.13796296296296295,0.30833333333333335],[""9"",0,0.31296296296296294],[""9"",-0.03425925925925926,0.31203703703703706],[""1"",0.025,0.3138888888888889],[""8"",-0.03888888888888889,0.3194444444444444],[""8"",-0.026851851851851852,0.31851851851851853],[""8"",-0.025925925925925925,0.31851851851851853],[""8"",-0.032407407407407406,0.31574074074074077],[""8"",-0.053703703703703705,0.30833333333333335],[""8"",-0.06759259259259259,0.30277777777777776],[""8"",-0.0712962962962963,0.30277777777777776],[""1"",0.011111111111111112,0.3111111111111111],[""1"",0.001851851851851852,0.30648148148148147],[""10"",0.004629629629629629,0.3074074074074074],[""5"",-0.30185185185185187,0.325],[""8"",-0.0787037037037037,0.3138888888888889],[""5"",-0.34444444444444444,0.3175925925925926],[""5"",-0.3574074074074074,0.3074074074074074],[""7"",0.1111111111111111,0.3148148148148148],[""7"",0.21296296296296297,0.31666666666666665],[""7"",0.21203703703703702,0.31666666666666665],[""6"",0.13240740740740742,0.3194444444444444],[""1"",0.008333333333333333,0.32592592592592595],[""1"",0.062037037037037036,0.3277777777777778],[""1"",0.06666666666666667,0.32314814814814813],[""1"",0.06666666666666667,0.31851851851851853],[""6"",0.1574074074074074,0.3388888888888889],[""6"",0.30185185185185187,0.33611111111111114],[""7"",0.2101851851851852,0.325],[""7"",0.15648148148148147,0.32685185185185184],[""6"",0.23148148148148148,0.31851851851851853],[""6"",0.22962962962962963,0.31851851851851853],[""7"",0.15925925925925927,0.32592592592592595],[""7"",0.14166666666666666,0.3175925925925926],[""1"",0.07037037037037037,0.325],[""1"",0.0712962962962963,0.325],[""1"",0.07592592592592592,0.3194444444444444],[""1"",0.07777777777777778,0.31851851851851853],[""1"",0.08148148148148149,0.29907407407407405],[""1"",0.1037037037037037,0.1685185185185185],[""1"",0.1037037037037037,0.16666666666666666],[""7"",0.18611111111111112,0.16944444444444445],[""7"",0.18333333333333332,0.13796296296296295],[""6"",0.2564814814814815,0.16203703703703703],[""6"",0.25925925925925924,0.125],[""6"",0.25925925925925924,0.12407407407407407],[""1"",0.08518518518518518,0.1388888888888889],[""1"",0.08425925925925926,0.13333333333333333],[""8"",-0.08703703703703704,0.32407407407407407],[""8"",0.026851851851851852,0.33055555555555555],[""8"",0.05740740740740741,0.3287037037037037],[""8"",0.058333333333333334,0.3111111111111111],[""8"",0.05925925925925926,0.30833333333333335],[""9"",-0.14907407407407408,0.3101851851851852],[""9"",-0.1638888888888889,0.30833333333333335],[""9"",-0.1787037037037037,0.28055555555555556],[""9"",-0.11851851851851852,0.2759259259259259],[""9"",-0.10462962962962963,0.30925925925925923],[""9"",-0.11851851851851852,0.3351851851851852],[""4"",-0.17314814814814813,0.2898148148148148],[""4"",-0.06111111111111111,0.30277777777777776],[""4"",-0.05,0.3148148148148148],[""9"",-0.1388888888888889,0.29907407407407405],[""9"",-0.1388888888888889,0.29444444444444445],[""4"",-0.05462962962962963,0.3194444444444444],[""4"",-0.06481481481481481,0.2972222222222222],[""3"",-0.2324074074074074,0.3175925925925926],[""3"",-0.041666666666666664,0.32685185185185184],[""3"",-0.025,0.31666666666666665],[""3"",-0.025,0.31296296296296294],[""9"",-0.17314814814814813,0.29814814814814816],[""9"",-0.19444444444444445,0.29814814814814816],[""4"",-0.10277777777777777,0.2916666666666667],[""4"",-0.17037037037037037,0.2916666666666667],[""3"",-0.08703703703703704,0.3037037037037037],[""4"",-0.14722222222222223,0.2962962962962963],[""4"",-0.13425925925925927,0.30092592592592593],[""4"",-0.13796296296296295,0.30092592592592593],[""4"",-0.14166666666666666,0.30185185185185187],[""8"",0.11296296296296296,0.3101851851851852],[""8"",0.262037037037037,0.3111111111111111],[""2"",-0.1574074074074074,0.32037037037037036],[""2"",0.03148148148148148,0.31574074074074077],[""2"",0.06944444444444445,0.30833333333333335],[""2"",0.07314814814814814,0.3074074074074074],[""8"",0.2537037037037037,0.31574074074074077],[""8"",0.1574074074074074,0.30925925925925923],[""8"",0.14444444444444443,0.3101851851851852],[""9"",-0.23703703703703705,0.3055555555555556],[""9"",-0.2611111111111111,0.30462962962962964],[""5"",-0.2675925925925926,0.3175925925925926],[""5"",-0.2212962962962963,0.31296296296296294],[""5"",-0.2074074074074074,0.3111111111111111],[""5"",-0.2037037037037037,0.3111111111111111],[""1"",0.1685185185185185,0.225],[""1"",0.2222222222222222,0.28055555555555556],[""1"",0.21944444444444444,0.30925925925925923],[""7"",0.1962962962962963,0.1537037037037037],[""7"",0.2611111111111111,0.2564814814814815],[""7"",0.2796296296296296,0.30185185185185187],[""6"",0.2777777777777778,0.14351851851851852],[""6"",0.33796296296296297,0.2833333333333333],[""6"",0.3472222222222222,0.3074074074074074]]",23,0.5078,198.5789,"[[""G"",""C""],[""G"",""E""],[""G"",""J""],[""G"",""I""],[""G"",""H""],[""G"",""F""],[""G"",""B""],[""G"",""D""],[""G"",""A""],[""F"",""H""],[""A"",""D""],[""A"",""B""],[""A"",""J""],[""D"",""J""],[""A"",""E""],[""A"",""D""],[""E"",""D""],[""E"",""J""],[""A"",""C""],[""B"",""C""],[""A"",""I""],[""D"",""I""],[""J"",""I""]]",,,0.507407407,-0.346296296,1,0,0,[],0,[],0.5003,2.6841,0,3,3,3,1,materials/merge_sort/imgs/fruits/melon,21,,,,,,,,,,,,,,,,,,,,,,,,,,,,,,,,,,,,,,
,,,,,,,,,,,,,,,,,,,,,,,,,,,,,,,,,,,,,,,,,,,,,,,,,,,,,,,,,,,,000,001,2021-10-19_08h55.21.871,seq_teaching_exp,2021.2.3,Win32,119.3887297,,,,,,,,,,,,,,,,,,,,,,,,,,,,,,,,,,,,,,,,,,,,,,,,,,,,,,,,,,,,,,,,materials/merge_sort/imgs/fruits/melon,,0.025925926,-0.392592593,1,0,0,16.326,D,F,"D,F,B,A,C,E",0.514814815,-0.361111111,1,0,0,"[""6"",""3"",""5"",""4"",""2"",""1""]","[""'E'"",""'B'"",""'C'"",""'A'"",""'F'"",""'D'""]","[[""1"",-0.18425925925925926,0.2796296296296296],[""1"",-0.11203703703703703,0.20185185185185187],[""1"",-0.12962962962962962,0.12777777777777777],[""2"",-0.20462962962962963,0.26944444444444443],[""2"",-0.2222222222222222,0.1398148148148148],[""2"",-0.22407407407407406,0.11481481481481481],[""3"",-0.14444444444444443,0.287962962962963],[""3"",-0.16111111111111112,0.1425925925925926],[""3"",-0.1685185185185185,0.1111111111111111],[""3"",-0.17037037037037037,0.11018518518518519],[""2"",-0.21574074074074073,0.13425925925925927],[""2"",-0.21481481481481482,0.15],[""3"",-0.16296296296296298,0.11388888888888889],[""3"",-0.16203703703703703,0.1398148148148148],[""1"",-0.125,0.1287037037037037],[""1"",-0.11296296296296296,0.14814814814814814],[""1"",-0.09907407407407408,0.1425925925925926],[""1"",-0.028703703703703703,0.15092592592592594],[""4"",-0.09351851851851851,0.2675925925925926],[""4"",-0.08148148148148149,0.1712962962962963],[""4"",-0.08333333333333333,0.14537037037037037],[""4"",-0.14629629629629629,0.15462962962962962],[""4"",-0.17685185185185184,0.1638888888888889],[""4"",-0.1259259259259259,0.15],[""4"",-0.10277777777777777,0.15925925925925927],[""4"",-0.15555555555555556,0.1574074074074074],[""4"",-0.19074074074074074,0.15092592592592594],[""3"",-0.11388888888888889,0.15092592592592594],[""3"",-0.10740740740740741,0.1527777777777778],[""4"",-0.16111111111111112,0.15833333333333333],[""1"",-0.023148148148148147,0.15925925925925927],[""1"",-0.026851851851851852,0.1574074074074074],[""1"",-0.028703703703703703,0.15648148148148147],[""1"",-0.02962962962962963,0.1537037037037037],[""5"",-0.06018518518518518,0.18518518518518517],[""5"",-0.06018518518518518,0.1638888888888889],[""1"",-0.007407407407407408,0.1527777777777778],[""1"",0.01574074074074074,0.1574074074074074],[""3"",-0.0787037037037037,0.17037037037037037],[""3"",-0.07037037037037037,0.16111111111111112],[""3"",-0.07592592592592592,0.16203703703703703],[""3"",-0.08333333333333333,0.16203703703703703],[""3"",-0.08703703703703704,0.16203703703703703],[""3"",-0.10185185185185185,0.16574074074074074],[""5"",-0.07592592592592592,0.16296296296296298],[""5"",-0.2638888888888889,0.15833333333333333],[""5"",-0.2833333333333333,0.16018518518518518],[""1"",0.013888888888888888,0.17222222222222222],[""1"",-0.021296296296296296,0.1712962962962963],[""1"",-0.016666666666666666,0.15648148148148147],[""1"",-0.016666666666666666,0.15092592592592594],[""1"",-0.017592592592592594,0.15092592592592594],[""6"",0.019444444444444445,0.31296296296296294],[""6"",-0.2351851851851852,0.22407407407407406],[""6"",-0.3675925925925926,0.19537037037037036],[""6"",-0.3611111111111111,0.17592592592592593],[""6"",-0.35833333333333334,0.175]]","[[""E"",""B""],[""E"",""C""],[""B"",""C""],[""E"",""A""],[""C"",""A""],[""B"",""A""],[""E"",""F""],[""C"",""F""],[""A"",""F""],[""B"",""F""],[""E"",""D""],[""C"",""D""],[""A"",""D""],[""B"",""D""],[""F"",""D""]]",15,0.5012,96.456,0,0,0,0,1,,,,,,,,,,,,
,,,,,,,,,,,,,,,,,,,,,,,,,,,,,,,,,,,,,,,,,,,,,,,,,,,,,,,,,,,,000,001,2021-10-19_08h55.21.871,seq_teaching_exp,2021.2.3,Win32,119.3887297,,,,,,,,,,,,,,,,,,,,,,,,,,,,,,,,,,,,,,,,,,,,,,,,,,,,,,,,,,,,,,,,materials/merge_sort/imgs/fruits/banana,,,,,,,,E,F,"E,F,B,A,C,D",0.533333333,-0.339814815,1,0,0,"[""4"",""6"",""5"",""2"",""3"",""1""]","[""'A'"",""'D'"",""'C'"",""'B'"",""'F'"",""'E'""]","[[""1"",-0.3074074074074074,0.2740740740740741],[""1"",-0.32222222222222224,0.2740740740740741],[""1"",-0.26481481481481484,0.25555555555555554],[""1"",-0.2601851851851852,0.30462962962962964],[""1"",-0.2611111111111111,0.29907407407407405],[""1"",-0.26296296296296295,0.27870370370370373],[""1"",-0.26481481481481484,0.2962962962962963],[""1"",-0.26481481481481484,0.29907407407407405],[""4"",-0.2518518518518518,0.30185185185185187],[""4"",-0.30462962962962964,0.30648148148148147],[""4"",-0.30833333333333335,0.3074074074074074],[""4"",-0.3138888888888889,0.3074074074074074],[""6"",-0.004629629629629629,0.29907407407407405],[""6"",-0.06388888888888888,0.28888888888888886],[""6"",-0.262037037037037,0.31296296296296294],[""6"",-0.37407407407407406,0.32037037037037036],[""5"",-0.06388888888888888,0.3037037037037037],[""5"",-0.10555555555555556,0.2601851851851852],[""5"",-0.30833333333333335,0.17592592592592593],[""5"",-0.3435185185185185,0.16296296296296298],[""3"",-0.14907407407407408,0.2972222222222222],[""3"",0.10925925925925926,0.2861111111111111],[""3"",0.15092592592592594,0.2935185185185185],[""2"",-0.09907407407407408,0.30833333333333335],[""2"",0.012962962962962963,0.3101851851851852],[""2"",0.07592592592592592,0.3055555555555556],[""2"",0.07962962962962963,0.2962962962962963],[""2"",0.07314814814814814,0.287962962962963],[""1"",-0.1388888888888889,0.3074074074074074],[""1"",-0.06666666666666667,0.30277777777777776],[""1"",-0.028703703703703703,0.30185185185185187],[""4"",-0.1638888888888889,0.3111111111111111],[""4"",-0.13703703703703704,0.3111111111111111],[""4"",-0.13518518518518519,0.3111111111111111],[""6"",-0.2518518518518518,0.31296296296296294],[""6"",-0.2388888888888889,0.31296296296296294],[""5"",-0.3287037037037037,0.18796296296296297],[""5"",-0.3055555555555556,0.2898148148148148],[""5"",-0.2962962962962963,0.3074074074074074],[""6"",-0.23981481481481481,0.30925925925925923],[""6"",-0.22592592592592592,0.2972222222222222],[""4"",-0.15185185185185185,0.3175925925925926],[""4"",-0.14907407407407408,0.2962962962962963],[""4"",-0.14814814814814814,0.2953703703703704],[""4"",-0.14074074074074075,0.2953703703703704],[""2"",0.1175925925925926,0.30648148148148147],[""2"",0.14814814814814814,0.30925925925925923],[""3"",0.13148148148148148,0.25277777777777777],[""3"",0.10277777777777777,0.2564814814814815],[""3"",0.041666666666666664,0.2796296296296296],[""3"",0.04351851851851852,0.2972222222222222],[""3"",0.06666666666666667,0.3055555555555556],[""3"",0.07407407407407407,0.30925925925925923],[""5"",-0.287962962962963,0.2953703703703704],[""5"",-0.24722222222222223,0.2324074074074074],[""5"",-0.18703703703703703,0.2601851851851852],[""5"",-0.175,0.30925925925925923],[""5"",-0.1787037037037037,0.30648148148148147],[""5"",-0.18333333333333332,0.29814814814814816],[""4"",-0.11851851851851852,0.3],[""4"",-0.08888888888888889,0.30092592592592593],[""4"",-0.08981481481481482,0.30092592592592593],[""4"",-0.09351851851851851,0.30092592592592593],[""4"",-0.09444444444444444,0.30092592592592593]]","[[""A"",""D""],[""A"",""C""],[""A"",""B""],[""A"",""E""],[""A"",""F""],[""C"",""D""],[""B"",""E""],[""F"",""E""]]",8,0.5055,65.2388,0,1,1,1,1,,,,,,,,,,,,
,,,,,,,,,,,,,,,,,,,,,,,,,,,,,,,,,,,,,,,,,,,,,,,,,,,,,,,,,,,,000,001,2021-10-19_08h55.21.871,seq_teaching_exp,2021.2.3,Win32,119.3887297,,,,,,,,,,,,,,,,,,,,,,,,,,,,,,,,,,,,,,,,,,,,,,,,,,,,,,,,,,,,,,,,materials/merge_sort/imgs/fruits/apple,,,,,,,,G,C,"G,C,E,A,F,D,B",0.563888889,-0.348148148,1,0,0,"[""7"",""5"",""3"",""6"",""1"",""4"",""2""]","[""'B'"",""'F'"",""'E'"",""'D'"",""'G'"",""'A'"",""'C'""]","[[""1"",-0.24814814814814815,0.24166666666666667],[""1"",-0.20277777777777778,0.1574074074074074],[""1"",-0.18333333333333332,0.14351851851851852],[""2"",-0.2074074074074074,0.28703703703703703],[""2"",-0.21481481481481482,0.15185185185185185],[""2"",-0.2175925925925926,0.1259259259259259],[""2"",-0.22962962962962963,0.13240740740740742],[""2"",-0.23981481481481481,0.15185185185185185],[""2"",-0.2361111111111111,0.14166666666666666],[""3"",-0.20185185185185187,0.2388888888888889],[""3"",-0.26666666666666666,0.16111111111111112],[""3"",-0.2898148148148148,0.14166666666666666],[""3"",-0.2898148148148148,0.14074074074074075],[""4"",-0.16296296296296298,0.24351851851851852],[""4"",-0.3212962962962963,0.1574074074074074],[""4"",-0.34629629629629627,0.14722222222222223],[""5"",-0.05,0.30833333333333335],[""5"",-0.30648148148148147,0.18333333333333332],[""5"",-0.38333333333333336,0.15092592592592594],[""5"",-0.39814814814814814,0.1388888888888889],[""1"",-0.18333333333333332,0.14629629629629629],[""1"",-0.08148148148148149,0.14814814814814814],[""1"",-0.07222222222222222,0.14814814814814814],[""2"",-0.1814814814814815,0.14351851851851852],[""2"",-0.16111111111111112,0.14351851851851852],[""3"",-0.25,0.1388888888888889],[""3"",-0.23333333333333334,0.1388888888888889],[""4"",-0.2814814814814815,0.14074074074074075],[""4"",-0.26944444444444443,0.14074074074074075],[""5"",-0.35185185185185186,0.14166666666666666],[""5"",-0.33796296296296297,0.14166666666666666],[""5"",-0.32222222222222224,0.1425925925925926],[""6"",-0.22407407407407406,0.2064814814814815],[""6"",-0.38333333333333336,0.14814814814814814],[""6"",-0.38796296296296295,0.1361111111111111],[""6"",-0.362962962962963,0.1425925925925926],[""7"",-0.06018518518518518,0.2574074074074074],[""7"",-0.2916666666666667,0.17314814814814813],[""7"",-0.3824074074074074,0.1388888888888889],[""7"",-0.3907407407407407,0.15185185185185185],[""7"",-0.3990740740740741,0.15092592592592594],[""1"",-0.06111111111111111,0.16296296296296298],[""1"",0.016666666666666666,0.1648148148148148],[""1"",0.22314814814814815,0.17314814814814813],[""1"",0.26481481481481484,0.17037037037037037],[""1"",0.26481481481481484,0.16944444444444445],[""2"",-0.12314814814814815,0.15833333333333333],[""2"",0.12222222222222222,0.16666666666666666],[""2"",0.17314814814814813,0.17037037037037037],[""3"",-0.14629629629629629,0.15185185185185185],[""3"",-0.09722222222222222,0.1638888888888889],[""3"",0.04259259259259259,0.17222222222222222],[""4"",-0.2518518518518518,0.14444444444444443],[""4"",-0.10648148148148148,0.15462962962962962],[""4"",-0.10740740740740741,0.15462962962962962],[""5"",-0.2351851851851852,0.1648148148148148],[""5"",-0.23703703703703705,0.1648148148148148],[""6"",-0.3037037037037037,0.1574074074074074],[""7"",-0.36574074074074076,0.16296296296296298],[""7"",-0.3537037037037037,0.16574074074074074],[""4"",0.007407407407407408,0.1037037037037037],[""4"",0.10185185185185185,0.0824074074074074],[""4"",0.11574074074074074,0.0787037037037037],[""3"",0.03611111111111111,0.16944444444444445],[""3"",-0.012037037037037037,0.14907407407407408],[""2"",0.09907407407407408,0.1527777777777778],[""2"",0.04722222222222222,0.1425925925925926],[""2"",0.03888888888888889,0.15185185185185185],[""4"",0.11388888888888889,0.09444444444444444],[""4"",0.10740740740740741,0.1398148148148148],[""4"",0.10925925925925926,0.15185185185185185],[""4"",0.11203703703703703,0.15555555555555556],[""5"",-0.23796296296296296,0.1712962962962963],[""5"",-0.16203703703703703,0.1527777777777778],[""5"",-0.11851851851851852,0.14907407407407408],[""5"",-0.11481481481481481,0.14722222222222223],[""5"",-0.12314814814814815,0.1537037037037037],[""5"",-0.125,0.15648148148148147],[""5"",-0.11574074074074074,0.14814814814814814],[""5"",-0.11481481481481481,0.14722222222222223],[""6"",-0.20925925925925926,0.20092592592592592],[""2"",0.03981481481481482,0.1675925925925926],[""2"",0.025925925925925925,0.16574074074074074],[""2"",0.06296296296296296,0.16666666666666666],[""2"",0.06944444444444445,0.16111111111111112],[""6"",-0.19537037037037036,0.21574074074074073],[""6"",-0.016666666666666666,0.1935185185185185],[""6"",0.012962962962962963,0.16944444444444445],[""6"",0.019444444444444445,0.16574074074074074],[""6"",0.023148148148148147,0.16296296296296298],[""7"",-0.3574074074074074,0.16944444444444445],[""7"",-0.058333333333333334,0.17037037037037037],[""7"",-0.03518518518518519,0.15],[""7"",-0.04351851851851852,0.14351851851851852]]","[[""B"",""F""],[""B"",""E""],[""B"",""D""],[""B"",""G""],[""B"",""A""],[""B"",""C""],[""F"",""E""],[""F"",""D""],[""F"",""G""],[""F"",""E""],[""G"",""E""],[""A"",""G""],[""A"",""E""],[""A"",""F""],[""C"",""F""],[""C"",""A""],[""C"",""E""],[""C"",""G""]]",18,0.5025,120.3851,0,2,2,2,1,,,,,,,,,,,,
,,,,,,,,,,,,,,,,,,,,,,,,,,,,,,,,,,,,,,,,,,,,,,,,,,,,,,,,,,,,000,001,2021-10-19_08h55.21.871,seq_teaching_exp,2021.2.3,Win32,119.3887297,,,,,,,,,,,,,,,,,,,,,,,,,,,,,,,,,,,,,,,,,,,,,,,,,,,,,,,,,,,,,,,,materials/merge_sort/imgs/fruits/banana,,,,,,,,G,F,"F,G,C,E,B,A,D",0.588888889,-0.37037037,1,0,0,"[""4"",""7"",""2"",""6"",""3"",""5"",""1""]","[""'E'"",""'D'"",""'G'"",""'A'"",""'C'"",""'B'"",""'F'""]","[[""2"",-0.19814814814814816,0.26944444444444443],[""2"",-0.19722222222222222,0.1712962962962963],[""1"",-0.25555555555555554,0.29444444444444445],[""1"",-0.25925925925925924,0.19074074074074074],[""1"",-0.2611111111111111,0.16666666666666666],[""3"",-0.1537037037037037,0.30462962962962964],[""3"",-0.2833333333333333,0.19907407407407407],[""3"",-0.30925925925925923,0.18055555555555555],[""4"",-0.10185185185185185,0.28055555555555556],[""4"",-0.11666666666666667,0.18611111111111112],[""4"",-0.11851851851851852,0.1527777777777778],[""4"",-0.11296296296296296,0.17685185185185184],[""4"",-0.11388888888888889,0.1814814814814815],[""4"",-0.12685185185185185,0.1824074074074074],[""2"",-0.125,0.16203703703703703],[""2"",-0.027777777777777776,0.15648148148148147],[""2"",-0.037037037037037035,0.1648148148148148],[""4"",-0.1675925925925926,0.1787037037037037],[""4"",-0.19722222222222222,0.175],[""4"",-0.20925925925925926,0.17314814814814813],[""2"",-0.10277777777777777,0.1712962962962963],[""2"",-0.13703703703703704,0.175],[""2"",-0.15092592592592594,0.17685185185185184],[""2"",-0.14444444444444443,0.17592592592592593],[""2"",-0.13333333333333333,0.17592592592592593],[""5"",-0.11574074074074074,0.275],[""5"",-0.32037037037037036,0.20925925925925926],[""5"",-0.3074074074074074,0.19537037037037036],[""5"",-0.29074074074074074,0.18796296296296297],[""3"",-0.3490740740740741,0.15833333333333333],[""3"",-0.35555555555555557,0.1537037037037037],[""1"",-0.2962962962962963,0.175],[""1"",-0.30185185185185187,0.1648148148148148],[""1"",-0.2712962962962963,0.17222222222222222],[""1"",-0.25833333333333336,0.17407407407407408],[""5"",-0.31574074074074077,0.16574074074074074],[""5"",-0.31203703703703706,0.16111111111111112],[""5"",-0.30462962962962964,0.16018518518518518],[""4"",-0.19537037037037036,0.17407407407407408],[""4"",-0.175,0.17777777777777778],[""6"",-0.12037037037037036,0.25925925925925924],[""6"",-0.18703703703703703,0.21666666666666667],[""6"",-0.2101851851851852,0.19444444444444445],[""6"",-0.21296296296296297,0.18888888888888888],[""6"",-0.21296296296296297,0.18333333333333332],[""6"",-0.21388888888888888,0.1787037037037037],[""6"",-0.21388888888888888,0.17777777777777778],[""7"",-0.1675925925925926,0.20462962962962963],[""7"",-0.24814814814814815,0.1814814814814815],[""7"",-0.30833333333333335,0.14537037037037037],[""7"",-0.3638888888888889,0.16111111111111112],[""7"",-0.3851851851851852,0.16296296296296298],[""7"",-0.3851851851851852,0.15925925925925927],[""7"",-0.38425925925925924,0.15555555555555556]]","[[""E"",""D""],[""E"",""G""],[""E"",""A""],[""D"",""A""],[""D"",""C""],[""A"",""C""],[""E"",""C""],[""G"",""C""],[""E"",""B""],[""A"",""B""],[""F"",""E""],[""F"",""C""],[""F"",""G""]]",13,0.5036,111.8393,0,3,3,3,1,,,,,,,,,,,,
,,,,,,,,,,,,,,,,,,,,,,,,,,,,,,,,,,,,,,,,,,,,,,,,,,,,,,,,,,,,000,001,2021-10-19_08h55.21.871,seq_teaching_exp,2021.2.3,Win32,119.3887297,,,,,,,,,,,,,,,,,,,,,,,,,,,,,,,,,,,,,,,,,,,,,,,,,,,,,,,,,,,,,,,,materials/merge_sort/imgs/fruits/melon,,,,,,,,B,D,"G,F,D,B,E,C,H,A",0.455555556,-0.327777778,1,0,0,"[""8"",""7"",""6"",""5"",""4"",""3"",""2"",""1""]","[""'A'"",""'H'"",""'C'"",""'E'"",""'B'"",""'D'"",""'F'"",""'G'""]","[[""1"",-0.2490740740740741,0.2916666666666667],[""1"",-0.14166666666666666,0.11388888888888889],[""1"",-0.13518518518518519,0.11388888888888889],[""2"",-0.2074074074074074,0.13333333333333333],[""2"",-0.20555555555555555,0.1],[""3"",-0.20833333333333334,0.17222222222222222],[""3"",-0.25,0.10925925925925926],[""3"",-0.2574074074074074,0.10648148148148148],[""4"",-0.14722222222222223,0.2490740740740741],[""4"",-0.30833333333333335,0.1537037037037037],[""4"",-0.3398148148148148,0.11296296296296296],[""4"",-0.3398148148148148,0.11203703703703703],[""5"",-0.23703703703703705,0.21296296296296297],[""5"",-0.33425925925925926,0.17407407407407408],[""5"",-0.36574074074074076,0.13425925925925927],[""5"",-0.3333333333333333,0.11018518518518519],[""5"",-0.30925925925925923,0.11481481481481481],[""5"",-0.30833333333333335,0.11481481481481481],[""5"",-0.30092592592592593,0.11481481481481481],[""6"",-0.20277777777777778,0.19907407407407407],[""6"",-0.2935185185185185,0.1388888888888889],[""6"",-0.3111111111111111,0.11851851851851852],[""6"",-0.36666666666666664,0.11574074074074074],[""6"",-0.38055555555555554,0.12129629629629629],[""6"",-0.3787037037037037,0.12129629629629629],[""7"",-0.08796296296296297,0.20092592592592592],[""7"",-0.21666666666666667,0.14629629629629629],[""7"",-0.19722222222222222,0.13333333333333333],[""7"",-0.175,0.11666666666666667],[""7"",-0.17222222222222222,0.11481481481481481],[""1"",-0.06388888888888888,0.11574074074074074],[""1"",-0.05555555555555555,0.12129629629629629],[""1"",0.19537037037037036,0.10740740740740741],[""1"",0.2324074074074074,0.1],[""8"",0.05648148148148148,0.2388888888888889],[""8"",0.002777777777777778,0.13148148148148148],[""8"",0.12314814814814815,0.10462962962962963],[""8"",0.14722222222222223,0.10555555555555556],[""8"",0.1648148148148148,0.10555555555555556],[""7"",-0.08703703703703704,0.125],[""7"",0.016666666666666666,0.11388888888888889],[""7"",0.040740740740740744,0.1111111111111111],[""7"",0.040740740740740744,0.10740740740740741],[""2"",-0.20462962962962963,0.11203703703703703],[""2"",-0.14074074074074075,0.11296296296296296],[""2"",-0.1388888888888889,0.11296296296296296],[""3"",-0.2611111111111111,0.11296296296296296],[""3"",-0.22870370370370371,0.11944444444444445],[""5"",-0.27685185185185185,0.12037037037037036],[""4"",-0.3416666666666667,0.125],[""4"",-0.3472222222222222,0.12962962962962962],[""4"",-0.3194444444444444,0.1287037037037037],[""6"",-0.36666666666666664,0.12685185185185185],[""6"",-0.3592592592592593,0.1259259259259259],[""3"",-0.22685185185185186,0.1259259259259259],[""3"",-0.07962962962962963,0.06296296296296296],[""3"",-0.07407407407407407,0.05648148148148148],[""3"",-0.0787037037037037,0.05092592592592592],[""3"",-0.15833333333333333,0.10833333333333334],[""3"",-0.17777777777777778,0.12314814814814815],[""3"",-0.18703703703703703,0.12685185185185185],[""3"",-0.19074074074074074,0.1287037037037037],[""8"",0.15648148148148147,0.11481481481481481],[""2"",-0.16296296296296298,0.1111111111111111],[""8"",0.06944444444444445,0.10740740740740741],[""2"",-0.23796296296296296,0.10462962962962963],[""2"",-0.2351851851851852,0.1111111111111111],[""3"",-0.14444444444444443,0.12129629629629629],[""3"",-0.06018518518518518,0.11851851851851852],[""3"",-0.04722222222222222,0.11666666666666667],[""3"",-0.046296296296296294,0.11666666666666667],[""8"",0.05648148148148148,0.10925925925925926],[""8"",-0.09259259259259259,0.10925925925925926],[""8"",-0.14814814814814814,0.10925925925925926],[""8"",-0.15,0.11574074074074074],[""8"",-0.14074074074074075,0.13055555555555556],[""8"",-0.13703703703703704,0.11666666666666667],[""8"",-0.13333333333333333,0.11018518518518519],[""3"",0.09537037037037037,0.1175925925925926],[""3"",0.09722222222222222,0.1175925925925926],[""7"",0.03148148148148148,0.11666666666666667],[""7"",-0.024074074074074074,0.11296296296296296],[""7"",-0.030555555555555555,0.11203703703703703],[""3"",0.09907407407407408,0.12222222222222222],[""3"",0.04722222222222222,0.10740740740740741],[""3"",0.04351851851851852,0.10555555555555556],[""2"",-0.08148148148148149,0.10277777777777777],[""2"",-0.03611111111111111,0.10277777777777777],[""3"",0.11203703703703703,0.10277777777777777],[""3"",0.11203703703703703,0.1111111111111111],[""3"",0.062037037037037036,0.10740740740740741],[""3"",-0.05092592592592592,0.10925925925925926],[""3"",-0.09074074074074075,0.11574074074074074],[""3"",-0.09259259259259259,0.11574074074074074],[""3"",-0.09351851851851851,0.11574074074074074],[""3"",-0.030555555555555555,0.1111111111111111],[""3"",0.06111111111111111,0.0962962962962963],[""3"",0.03148148148148148,0.10092592592592593],[""2"",0.06574074074074074,0.09074074074074075],[""2"",0.08888888888888889,0.09351851851851851],[""2"",0.09722222222222222,0.10740740740740741],[""2"",0.09907407407407408,0.11203703703703703],[""2"",0.09351851851851851,0.10648148148148148],[""3"",0.03981481481481482,0.10462962962962963],[""3"",0.03981481481481482,0.11018518518518519],[""3"",0.037037037037037035,0.11296296296296296],[""3"",0.027777777777777776,0.11203703703703703],[""7"",-0.049074074074074076,0.11018518518518519],[""7"",-0.053703703703703705,0.10925925925925926],[""5"",-0.20462962962962963,0.17592592592592593],[""5"",0.023148148148148147,0.17777777777777778],[""5"",0.010185185185185186,0.1259259259259259],[""5"",-0.004629629629629629,0.10555555555555556],[""5"",-0.010185185185185186,0.11851851851851852],[""4"",-0.28703703703703703,0.14351851851851852],[""4"",-0.053703703703703705,0.18611111111111112],[""4"",-0.014814814814814815,0.175],[""4"",0.021296296296296296,0.16666666666666666],[""4"",0.025,0.16574074074074074],[""4"",0.025,0.15833333333333333],[""8"",-0.13148148148148148,0.11666666666666667],[""8"",-0.17314814814814813,0.11851851851851852],[""7"",-0.07685185185185185,0.11481481481481481],[""7"",-0.13333333333333333,0.11481481481481481],[""5"",-0.062037037037037036,0.11388888888888889],[""5"",-0.1,0.11296296296296296],[""4"",0,0.14629629629629629],[""4"",-0.03888888888888889,0.1259259259259259],[""4"",-0.04722222222222222,0.12037037037037036],[""4"",-0.044444444444444446,0.11944444444444445],[""5"",-0.10092592592592593,0.12129629629629629],[""5"",-0.1,0.12314814814814815],[""5"",-0.09166666666666666,0.12314814814814815],[""5"",-0.08981481481481482,0.12314814814814815],[""5"",-0.08888888888888889,0.12314814814814815],[""4"",-0.03611111111111111,0.1259259259259259],[""4"",-0.026851851851851852,0.12685185185185185],[""5"",-0.07592592592592592,0.125],[""5"",-0.075,0.12407407407407407],[""5"",-0.07592592592592592,0.12407407407407407],[""6"",-0.35555555555555557,0.13240740740740742],[""6"",-0.2861111111111111,0.15462962962962962],[""6"",-0.15648148148148147,0.17222222222222222],[""6"",-0.12129629629629629,0.18333333333333332],[""6"",-0.10462962962962963,0.1925925925925926],[""6"",-0.09814814814814815,0.1962962962962963]]","[[""A"",""H""],[""A"",""C""],[""A"",""E""],[""A"",""B""],[""A"",""D""],[""A"",""F""],[""A"",""G""],[""C"",""G""],[""C"",""F""],[""G"",""F""],[""G"",""H""],[""F"",""H""],[""C"",""H""],[""B"",""H""],[""B"",""G""],[""B"",""F""],[""B"",""C""],[""E"",""C""],[""E"",""B""],[""D"",""B""],[""D"",""F""],[""D"",""B""]]",22,0.5047,160.0988,0,4,4,4,1,,,,,,,,,,,,
,,,,,,,,,,,,,,,,,,,,,,,,,,,,,,,,,,,,,,,,,,,,,,,,,,,,,,,,,,,,000,001,2021-10-19_08h55.21.871,seq_teaching_exp,2021.2.3,Win32,119.3887297,,,,,,,,,,,,,,,,,,,,,,,,,,,,,,,,,,,,,,,,,,,,,,,,,,,,,,,,,,,,,,,,materials/merge_sort/imgs/fruits/apple,,,,,,,,F,D,"F,D,A,B,E,H,I,C,G,J",0.511111111,-0.34537037,1,0,0,"[""5"",""7"",""6"",""1"",""4"",""9"",""8"",""10"",""2"",""3""]","[""'E'"",""'I'"",""'H'"",""'F'"",""'B'"",""'G'"",""'C'"",""'J'"",""'D'"",""'A'""]","[[""1"",-0.2777777777777778,0.125],[""1"",-0.28425925925925927,0.10092592592592593],[""2"",-0.20277777777777778,0.23796296296296296],[""2"",-0.22407407407407406,0.11296296296296296],[""2"",-0.22777777777777777,0.0962962962962963],[""3"",-0.15462962962962962,0.1398148148148148],[""3"",-0.16574074074074074,0.08981481481481482],[""3"",-0.16666666666666666,0.08981481481481482],[""4"",-0.17777777777777778,0.21666666666666667],[""4"",-0.31574074074074077,0.1111111111111111],[""4"",-0.3425925925925926,0.10833333333333334],[""4"",-0.34629629629629627,0.12037037037037036],[""4"",-0.34629629629629627,0.10555555555555556],[""4"",-0.3453703703703704,0.10462962962962963],[""4"",-0.3435185185185185,0.10462962962962963],[""4"",-0.3425925925925926,0.1037037037037037],[""3"",-0.16018518518518518,0.09537037037037037],[""3"",-0.06018518518518518,0.0962962962962963],[""3"",-0.05648148148148148,0.10740740740740741],[""3"",0.01574074074074074,0.11388888888888889],[""2"",-0.08703703703703704,0.12037037037037036],[""2"",-0.06944444444444445,0.12129629629629629],[""2"",-0.06944444444444445,0.12037037037037036],[""1"",-0.27685185185185185,0.10555555555555556],[""1"",-0.1574074074074074,0.11203703703703703],[""1"",-0.15,0.1175925925925926],[""4"",-0.3435185185185185,0.11481481481481481],[""4"",-0.23981481481481481,0.13240740740740742],[""4"",-0.22962962962962963,0.12685185185185185],[""4"",-0.22962962962962963,0.12407407407407407],[""5"",-0.16574074074074074,0.20555555555555555],[""5"",-0.26296296296296295,0.15],[""5"",-0.2861111111111111,0.13055555555555556],[""7"",0.05277777777777778,0.2722222222222222],[""7"",0.06851851851851852,0.14814814814814814],[""7"",0.07222222222222222,0.09537037037037037],[""7"",0.07222222222222222,0.09166666666666666],[""6"",0.017592592592592594,0.31296296296296294],[""6"",0.062037037037037036,0.20092592592592592],[""6"",0.13240740740740742,0.13148148148148148],[""6"",0.1675925925925926,0.08611111111111111],[""6"",0.17037037037037037,0.075],[""8"",0.10833333333333334,0.287962962962963],[""8"",0.20277777777777778,0.16203703703703703],[""8"",0.2462962962962963,0.09722222222222222],[""8"",0.25277777777777777,0.07685185185185185],[""9"",0.12222222222222222,0.30277777777777776],[""9"",0.06111111111111111,0.2814814814814815],[""9"",-0.010185185185185186,0.24537037037037038],[""9"",-0.22777777777777777,0.16203703703703703],[""9"",-0.30277777777777776,0.12777777777777777],[""9"",-0.3472222222222222,0.13703703703703704],[""10"",0.20092592592592592,0.2861111111111111],[""10"",0.001851851851851852,0.1675925925925926],[""10"",-0.14166666666666666,0.14907407407407408],[""10"",-0.1925925925925926,0.1388888888888889],[""10"",-0.20925925925925926,0.125],[""10"",-0.2,0.125],[""10"",-0.19444444444444445,0.125],[""10"",-0.1935185185185185,0.125],[""3"",0.012037037037037037,0.12314814814814815],[""3"",-0.08425925925925926,0.11666666666666667],[""3"",-0.12129629629629629,0.11574074074074074],[""2"",-0.04814814814814815,0.125],[""2"",-0.046296296296296294,0.12407407407407407],[""3"",-0.08611111111111111,0.11851851851851852],[""3"",-0.0824074074074074,0.11851851851851852],[""3"",-0.08888888888888889,0.12407407407407407],[""3"",-0.09074074074074075,0.12685185185185185],[""7"",0.058333333333333334,0.10833333333333334],[""7"",0.03148148148148148,0.12129629629629629],[""7"",0.021296296296296296,0.1259259259259259],[""7"",0.020370370370370372,0.12777777777777777],[""6"",0.12037037037037036,0.13240740740740742],[""6"",0.10092592592592593,0.13055555555555556],[""6"",0.09722222222222222,0.12962962962962962],[""8"",0.20555555555555555,0.13518518518518519],[""8"",0.1675925925925926,0.13148148148148148],[""8"",0.1712962962962963,0.12962962962962962],[""5"",-0.2916666666666667,0.13240740740740742],[""5"",-0.20277777777777778,0.17407407407407408],[""5"",-0.18611111111111112,0.17407407407407408],[""5"",-0.1824074074074074,0.1712962962962963],[""5"",-0.17314814814814813,0.1712962962962963],[""4"",-0.25555555555555554,0.12777777777777777],[""4"",-0.35555555555555557,0.10462962962962963],[""4"",-0.3787037037037037,0.09166666666666666],[""9"",-0.3037037037037037,0.11203703703703703],[""9"",-0.30277777777777776,0.10740740740740741],[""4"",-0.3277777777777778,0.12314814814814815],[""4"",-0.337037037037037,0.1175925925925926],[""4"",-0.34074074074074073,0.11666666666666667],[""10"",-0.20185185185185187,0.125],[""10"",-0.24166666666666667,0.10648148148148148],[""5"",-0.19722222222222222,0.12962962962962962],[""5"",-0.19814814814814816,0.11574074074074074],[""5"",-0.19722222222222222,0.10740740740740741]]","[[""E"",""I""],[""E"",""H""],[""E"",""F""],[""E"",""B""],[""E"",""C""],[""E"",""G""],[""E"",""J""],[""E"",""D""],[""E"",""A""],[""I"",""H""],[""I"",""C""],[""I"",""G""],[""C"",""G""],[""I"",""J""],[""C"",""J""],[""G"",""J""],[""A"",""D""],[""A"",""B""],[""A"",""F""],[""D"",""F""]]",20,0.507,194.1239,0,5,5,5,1,,,,,,,,,,,,
,,,,,,,,,,,,,,,,,,,,,,,,,,,,,,,,,,,,,,,,,,,,,,,,,,,,,,,,,,,,000,001,2021-10-19_08h55.21.871,seq_teaching_exp,2021.2.3,Win32,119.3887297,,,,,,,,,,,,,,,,,,,,,,,,,,,,,,,,,,,,,,,,,,,,,,,,,,,,,,,,,,,,,,,,,,,,,,,,,,,,,,,,,,,,,,,,,,,,NAH,-0.001851852,-0.355555556,1,0,0,17.4672,0.293518519,-0.281481481,1,0,0
