background_mouse.x,background_mouse.y,background_mouse.leftButton,background_mouse.midButton,background_mouse.rightButton,demographic_age,demographic_education,demographic_gender,background.tEnd,intro_mouse.x,intro_mouse.y,intro_mouse.leftButton,intro_mouse.midButton,intro_mouse.rightButton,intro.tEnd,hint_mouse.x,hint_mouse.y,hint_mouse.leftButton,hint_mouse.midButton,hint_mouse.rightButton,hint.tEnd,merge_intro_mouse.x,merge_intro_mouse.y,merge_intro_mouse.leftButton,merge_intro_mouse.midButton,merge_intro_mouse.rightButton,merge_intro.tEnd,merge_train_scale_right.text,merge_train_scale_left.text,merge_train_mouse.x,merge_train_mouse.y,merge_train_mouse.leftButton,merge_train_mouse.midButton,merge_train_mouse.rightButton,merge_train_mouse.clicked_name,merge_train.tStart,mc_order,merge_train_compareN,merge_train_labels,merge_train_input,merge_train_compare_records,merge_train_mouse_clicked,merge_train.tEnd,merge_expl_mouse.x,merge_expl_mouse.y,merge_expl_mouse.leftButton,merge_expl_mouse.midButton,merge_expl_mouse.rightButton,merge_expl.tStart,merge_expl.tEnd,TRAIN_1.thisRepN,TRAIN_1.thisTrialN,TRAIN_1.thisN,TRAIN_1.thisIndex,TRAIN_1.ran,img_path,input,encryption,mc_path_1,mc_path_2,participant,session,date,expName,psychopyVersion,OS,frameRate,merge_test_intro_mouse.x,merge_test_intro_mouse.y,merge_test_intro_mouse.leftButton,merge_test_intro_mouse.midButton,merge_test_intro_mouse.rightButton,merge_test_intro.tEnd,merge_test_scale_right.text,merge_test_scale_left.text,merge_test_res.text,merge_test_mouse.x,merge_test_mouse.y,merge_test_mouse.leftButton,merge_test_mouse.midButton,merge_test_mouse.rightButton,merge_test_input,merge_test_labels,merge_test_compareN,merge_test_compare_records,merge_test.tStart,merge_test.tEnd,TEST_1.thisRepN,TEST_1.thisTrialN,TEST_1.thisN,TEST_1.thisIndex,TEST_1.ran,sort_intro_mouse.x,sort_intro_mouse.y,sort_intro_mouse.leftButton,sort_intro_mouse.midButton,sort_intro_mouse.rightButton,sort_intro.tEnd,sort_train_scale_right.text,sort_train_scale_left.text,sort_train_res.text,sort_train_mouse.x,sort_train_mouse.y,sort_train_mouse.leftButton,sort_train_mouse.midButton,sort_train_mouse.rightButton,sort_train_input,sort_train_labels,sort_train_trace,sort_train_compareN,sort_train.tStart,sort_train.tEnd,sort_train_compare_records,sort_expl_scale_right.text,sort_expl_scale_left.text,sort_expl_mouse.x,sort_expl_mouse.y,sort_expl_mouse.leftButton,sort_expl_mouse.midButton,sort_expl_mouse.rightButton,sort_expl_trace,sort_expl_compareN,sort_expl_compare_records,sort_expl.tStart,sort_expl.tEnd,TRAIN_2.thisRepN,TRAIN_2.thisTrialN,TRAIN_2.thisN,TRAIN_2.thisIndex,TRAIN_2.ran,img_path_base,ms_compare,sort_test_intro_mouse.x,sort_test_intro_mouse.y,sort_test_intro_mouse.leftButton,sort_test_intro_mouse.midButton,sort_test_intro_mouse.rightButton,sort_test_intro.tEnd,sort_test_scale_right.text,sort_test_scale_left.text,sort_test_res.text,sort_test_mouse.x,sort_test_mouse.y,sort_test_mouse.leftButton,sort_test_mouse.midButton,sort_test_mouse.rightButton,sort_test_input,sort_test_labels,sort_test_trace,sort_test_compare_records,sort_test_compareN,sort_test.tStart,sort_test.tEnd,TEST_2.thisRepN,TEST_2.thisTrialN,TEST_2.thisN,TEST_2.thisIndex,TEST_2.ran,exp_check_res.text,exp_check_mouse.x,exp_check_mouse.y,exp_check_mouse.leftButton,exp_check_mouse.midButton,exp_check_mouse.rightButton,exp_check.tEnd,debrief_mouse.x,debrief_mouse.y,debrief_mouse.leftButton,debrief_mouse.midButton,debrief_mouse.rightButton
-0.057268722,-0.390969163,1,0,0,_18_24,high_school_equivalent,male,43.278,0.019823789,-0.38215859,1,0,0,13.04,0.04845815,-0.396475771,1,0,0,7.914,0.077092511,-0.390969163,1,0,0,36.553,B,A,0.488986784,-0.268722467,1,0,0,merge_train_btn_1,0.508,"[0,1]",1,"[""'A'"",""'B'""]","[""4"",""2""]","[[""A"",""B""]]","[""merge_train_btn_1""]",43.008,0.338105727,-0.427312775,1,0,0,0.516,27.619,0,0,0,0,1,materials/merge_sort/imgs/merge_train/merge_train_ex_1.png,,,materials/merge_sort/imgs/merge_train/merge_train_ex_1_1_correct.png,materials/merge_sort/imgs/merge_train/merge_train_ex_1_1_wrong.png,jl03,001,2021-10-11_15h59.19.109,seq_teaching_exp,2021.2.3,Win32,59.88023952,,,,,,,,,,,,,,,,,,,,,,,,,,,,,,,,,,,,,,,,,,,,,,,,,,,,,,,,,,,,,,,,,,,,,,,,,,,,,,,,,,,,,,,,,,,,,,,,,,,,,,,
,,,,,,,,,,,,,,,,,,,,,,,,,,,D,B,0.485682819,-0.394273128,1,0,0,merge_train_btn_2,0.5,"[1,0]",3,"[""'A'"",""'B'"",""'D'"",""'C'""]","[""1"",""4"",""2"",""3""]","[[""A"",""D""],[""A"",""B""],[""B"",""D""]]","[""merge_train_btn_2""]",59.482,0.38876652,-0.447136564,1,0,0,0.516,25.899,0,1,1,1,1,materials/merge_sort/imgs/merge_train/merge_train_ex_2.png,,,materials/merge_sort/imgs/merge_train/merge_train_ex_2_1_correct.png,materials/merge_sort/imgs/merge_train/merge_train_ex_2_1_wrong.png,jl03,001,2021-10-11_15h59.19.109,seq_teaching_exp,2021.2.3,Win32,59.88023952,,,,,,,,,,,,,,,,,,,,,,,,,,,,,,,,,,,,,,,,,,,,,,,,,,,,,,,,,,,,,,,,,,,,,,,,,,,,,,,,,,,,,,,,,,,,,,,,,,,,,,,
,,,,,,,,,,,,,,,,,,,,,,,,,,,B,C,0.531938326,-0.422907489,1,0,0,merge_train_btn_2,0.501,"[1,0]",1,"[""'A'"",""'B'"",""'D'"",""'C'""]","[""1"",""4"",""2"",""3""]","[[""C"",""B""]]","[""merge_train_btn_2""]",18.435,0.362334802,-0.418502203,1,0,0,0.5,6.378,0,2,2,2,1,materials/merge_sort/imgs/merge_train/merge_train_ex_2.png,,,materials/merge_sort/imgs/merge_train/merge_train_ex_2_2_correct.png,materials/merge_sort/imgs/merge_train/merge_train_ex_2_2_wrong.png,jl03,001,2021-10-11_15h59.19.109,seq_teaching_exp,2021.2.3,Win32,59.88023952,,,,,,,,,,,,,,,,,,,,,,,,,,,,,,,,,,,,,,,,,,,,,,,,,,,,,,,,,,,,,,,,,,,,,,,,,,,,,,,,,,,,,,,,,,,,,,,,,,,,,,,
,,,,,,,,,,,,,,,,,,,,,,,,,,,E,B,0.422907489,-0.400881057,1,0,0,merge_train_btn_2,0.501,"[1,0]",1,"[""'C'"",""'D'"",""'B'"",""'A'"",""'G'"",""'E'"",""'F'""]","[""1"",""2"",""5"",""7"",""3"",""4"",""6""]","[[""B"",""E""]]","[""merge_train_btn_2""]",9.133,0.356828194,-0.407488987,1,0,0,0.517,3.005,0,3,3,3,1,materials/merge_sort/imgs/merge_train/merge_train_ex_5.png,,,materials/merge_sort/imgs/merge_train/merge_train_ex_5_1_correct.png,materials/merge_sort/imgs/merge_train/merge_train_ex_5_1_wrong.png,jl03,001,2021-10-11_15h59.19.109,seq_teaching_exp,2021.2.3,Win32,59.88023952,,,,,,,,,,,,,,,,,,,,,,,,,,,,,,,,,,,,,,,,,,,,,,,,,,,,,,,,,,,,,,,,,,,,,,,,,,,,,,,,,,,,,,,,,,,,,,,,,,,,,,,
,,,,,,,,,,,,,,,,,,,,,,,,,,,B,F,0.485682819,-0.393171806,1,0,0,merge_train_btn_2,0.5,"[0,1]",1,"[""'C'"",""'D'"",""'B'"",""'A'"",""'G'"",""'E'"",""'F'""]","[""1"",""2"",""5"",""7"",""3"",""4"",""6""]","[[""F"",""B""]]","[""merge_train_btn_2""]",7.847,0.365638767,-0.43061674,1,0,0,0.5,1.853,0,4,4,4,1,materials/merge_sort/imgs/merge_train/merge_train_ex_5.png,,,materials/merge_sort/imgs/merge_train/merge_train_ex_5_2_correct.png,materials/merge_sort/imgs/merge_train/merge_train_ex_5_2_wrong.png,jl03,001,2021-10-11_15h59.19.109,seq_teaching_exp,2021.2.3,Win32,59.88023952,,,,,,,,,,,,,,,,,,,,,,,,,,,,,,,,,,,,,,,,,,,,,,,,,,,,,,,,,,,,,,,,,,,,,,,,,,,,,,,,,,,,,,,,,,,,,,,,,,,,,,,
,,,,,,,,,,,,,,,,,,,,,,,,,,,F,A,0.496696035,-0.420704846,1,0,0,merge_train_btn_2,0.5,"[0,1]",1,"[""'C'"",""'D'"",""'B'"",""'A'"",""'G'"",""'E'"",""'F'""]","[""1"",""2"",""5"",""7"",""3"",""4"",""6""]","[[""A"",""F""]]","[""merge_train_btn_2""]",11.322,0.401982379,-0.427312775,1,0,0,0.5,2.554,0,5,5,5,1,materials/merge_sort/imgs/merge_train/merge_train_ex_5.png,,,materials/merge_sort/imgs/merge_train/merge_train_ex_5_3_correct.png,materials/merge_sort/imgs/merge_train/merge_train_ex_5_3_wrong.png,jl03,001,2021-10-11_15h59.19.109,seq_teaching_exp,2021.2.3,Win32,59.88023952,,,,,,,,,,,,,,,,,,,,,,,,,,,,,,,,,,,,,,,,,,,,,,,,,,,,,,,,,,,,,,,,,,,,,,,,,,,,,,,,,,,,,,,,,,,,,,,,,,,,,,,
,,,,,,,,,,,,,,,,,,,,,,,,,,,,,,,,,,,,,,,,,,,,,,,,,,,,,,,materials/merge_sort/imgs/merge_test/merge_test_ex_1.png,,,,,jl03,001,2021-10-11_15h59.19.109,seq_teaching_exp,2021.2.3,Win32,59.88023952,0.033039648,-0.396475771,1,0,0,38.207,E,B,"C,A,D,E,B",0.507709251,-0.355726872,1,0,0,"[""1"",""2"",""5"",""3"",""4""]","[""'C'"",""'A'"",""'B'"",""'D'"",""'E'""]",9,"[[""C"",""D""],[""C"",""E""],[""A"",""E""],[""B"",""E""],[""A"",""D""],[""A"",""E""],[""B"",""D""],[""E"",""D""],[""B"",""E""]]",0.515,82.442,0,0,0,0,1,,,,,,,,,,,,,,,,,,,,,,,,,,,,,,,,,,,,,,,,,,,,,,,,,,,,,,,,,,,,,,,,,,,,,,,,,,,,,,
,,,,,,,,,,,,,,,,,,,,,,,,,,,,,,,,,,,,,,,,,,,,,,,,,,,,,,,materials/merge_sort/imgs/merge_test/merge_test_ex_2.png,,,,,jl03,001,2021-10-11_15h59.19.109,seq_teaching_exp,2021.2.3,Win32,59.88023952,,,,,,,A,B,"D,E,C,B,A",0.498898678,-0.345814978,1,0,0,"[""3"",""4"",""5"",""1"",""2""]","[""'B'"",""'A'"",""'C'"",""'D'"",""'E'""]",11,"[[""B"",""D""],[""A"",""D""],[""C"",""D""],[""E"",""D""],[""B"",""E""],[""A"",""E""],[""C"",""E""],[""C"",""B""],[""A"",""B""],[""C"",""B""],[""B"",""A""]]",0.516,75.496,0,1,1,1,1,,,,,,,,,,,,,,,,,,,,,,,,,,,,,,,,,,,,,,,,,,,,,,,,,,,,,,,,,,,,,,,,,,,,,,,,,,,,,,
,,,,,,,,,,,,,,,,,,,,,,,,,,,,,,,,,,,,,,,,,,,,,,,,,,,,,,,materials/merge_sort/imgs/merge_test/merge_test_ex_3.png,,,,,jl03,001,2021-10-11_15h59.19.109,seq_teaching_exp,2021.2.3,Win32,59.88023952,,,,,,,C,E,"F,D,A,E,C,B",0.466960352,-0.356828194,1,0,0,"[""3"",""5"",""6"",""1"",""2"",""4""]","[""'A'"",""'C'"",""'B'"",""'F'"",""'D'"",""'E'""]",9,"[[""A"",""F""],[""C"",""F""],[""B"",""F""],[""A"",""D""],[""A"",""E""],[""D"",""C""],[""D"",""B""],[""E"",""A""],[""E"",""C""]]",0.5,84.129,0,2,2,2,1,,,,,,,,,,,,,,,,,,,,,,,,,,,,,,,,,,,,,,,,,,,,,,,,,,,,,,,,,,,,,,,,,,,,,,,,,,,,,,
,,,,,,,,,,,,,,,,,,,,,,,,,,,,,,,,,,,,,,,,,,,,,,,,,,,,,,,materials/merge_sort/imgs/merge_test/merge_test_ex_4.png,,,,,jl03,001,2021-10-11_15h59.19.109,seq_teaching_exp,2021.2.3,Win32,59.88023952,,,,,,,G,C,"E,D,B,G,C,F,A",0.531938326,-0.341409692,1,0,0,"[""2"",""3"",""5"",""7"",""1"",""4"",""6""]","[""'D'"",""'B'"",""'C'"",""'A'"",""'E'"",""'G'"",""'F'""]",9,"[[""D"",""E""],[""D"",""G""],[""D"",""F""],[""B"",""G""],[""B"",""F""],[""B"",""D""],[""F"",""C""],[""F"",""A""],[""C"",""G""]]",0.5,87.536,0,3,3,3,1,,,,,,,,,,,,,,,,,,,,,,,,,,,,,,,,,,,,,,,,,,,,,,,,,,,,,,,,,,,,,,,,,,,,,,,,,,,,,,
,,,,,,,,,,,,,,,,,,,,,,,,,,,,,,,,,,,,,,,,,,,,,,,,,,,,,,,materials/merge_sort/imgs/merge_test/merge_test_ex_5.png,,,,,jl03,001,2021-10-11_15h59.19.109,seq_teaching_exp,2021.2.3,Win32,59.88023952,,,,,,,F,D,"C,E,G,A,B,D,F",0.600220264,-0.342511013,1,0,0,"[""1"",""4"",""5"",""6"",""2"",""3"",""7""]","[""'C'"",""'A'"",""'B'"",""'D'"",""'E'"",""'G'"",""'F'""]",8,"[[""C"",""E""],[""A"",""E""],[""A"",""G""],[""A"",""F""],[""B"",""F""],[""A"",""F""],[""B"",""F""],[""D"",""F""]]",0.517,70.469,0,4,4,4,1,,,,,,,,,,,,,,,,,,,,,,,,,,,,,,,,,,,,,,,,,,,,,,,,,,,,,,,,,,,,,,,,,,,,,,,,,,,,,,
,,,,,,,,,,,,,,,,,,,,,,,,,,,,,,,,,,,,,,,,,,,,,,,,,,,,,,,,,,,,jl03,001,2021-10-11_15h59.19.109,seq_teaching_exp,2021.2.3,Win32,59.88023952,,,,,,,,,,,,,,,,,,,,,,,,,,0.056167401,-0.397577093,1,0,0,25.199,E,F,"E,F,C,D,A,B",0.533039648,-0.356828194,1,0,0,"[""5"",""4"",""6"",""3"",""1"",""2""]","[""'A'"",""'D'"",""'B'"",""'C'"",""'E'"",""'F'""]","[[""2"",-0.22356828193832598,0.21916299559471367],[""2"",-0.2786343612334802,0.18612334801762115],[""2"",-0.2599118942731278,0.18061674008810572],[""1"",-0.1685022026431718,0.18612334801762115],[""1"",-0.17731277533039647,0.16409691629955947],[""1"",-0.18722466960352424,0.17731277533039647],[""3"",-0.11784140969162996,0.2566079295154185],[""3"",-0.12444933920704845,0.16079295154185022],[""3"",-0.12334801762114538,0.17731277533039647],[""3"",-0.11343612334801761,0.17841409691629956],[""4"",-0.263215859030837,0.24118942731277532],[""4"",-0.32268722466960353,0.19162995594713655],[""4"",-0.31607929515418504,0.17400881057268722],[""3"",0.03634361233480176,0.15308370044052863],[""3"",0.00881057268722467,0.1751101321585903],[""3"",0.007709251101321586,0.1762114537444934],[""1"",-0.05286343612334802,0.17841409691629956],[""1"",-0.04515418502202643,0.17400881057268722],[""1"",-0.05506607929515418,0.1751101321585903],[""2"",-0.10462555066079295,0.17290748898678415],[""2"",-0.10572687224669604,0.17180616740088106],[""4"",-0.1685022026431718,0.17290748898678415],[""4"",-0.15088105726872247,0.17180616740088106],[""4"",-0.15748898678414097,0.17180616740088106],[""5"",-0.07599118942731277,0.3039647577092511],[""5"",-0.24559471365638766,0.1685022026431718],[""5"",-0.21696035242290748,0.17180616740088106],[""5"",-0.20484581497797358,0.1685022026431718],[""5"",-0.20374449339207049,0.17400881057268722],[""5"",-0.2092511013215859,0.183920704845815],[""5"",-0.29515418502202645,0.1751101321585903],[""5"",-0.29515418502202645,0.1762114537444934],[""5"",-0.28854625550660795,0.17400881057268722],[""6"",-0.014317180616740088,0.29625550660792954],[""6"",-0.01762114537444934,0.2973568281938326],[""6"",-0.21696035242290748,0.18612334801762115],[""6"",-0.23348017621145375,0.1696035242290749],[""6"",-0.22577092511013216,0.17400881057268722]]",7,0.515,81.357,"[[""A"",""D""],[""B"",""D""],[""C"",""D""],[""E"",""D""],[""E"",""C""],[""F"",""C""],[""F"",""E""]]",,,0.477973568,-0.345814978,1,0,0,"[[""5"",-0.2698237885462555,0.3579295154185022],[""5"",-0.2709251101321586,0.3854625550660793],[""5"",-0.289647577092511,0.2544052863436123],[""5"",-0.28193832599118945,0.17400881057268722],[""5"",-0.26762114537444937,0.17290748898678415],[""5"",-0.2720264317180617,0.17290748898678415]]",0,[],0.515,50.748,0,0,0,0,1,materials/merge_sort/imgs/fruits/apple,8,,,,,,,,,,,,,,,,,,,,,,,,,,,,,,,,,,,,,,
,,,,,,,,,,,,,,,,,,,,,,,,,,,,,,,,,,,,,,,,,,,,,,,,,,,,,,,,,,,,jl03,001,2021-10-11_15h59.19.109,seq_teaching_exp,2021.2.3,Win32,59.88023952,,,,,,,,,,,,,,,,,,,,,,,,,,,,,,,,F,B,"B,F,E,C,A,D,G",0.589207048,-0.341409692,1,0,0,"[""6"",""2"",""4"",""7"",""5"",""3"",""1""]","[""'C'"",""'B'"",""'E'"",""'D'"",""'A'"",""'F'"",""'G'""]","[[""2"",-0.1894273127753304,0.29625550660792954],[""2"",-0.21916299559471367,0.14647577092511013],[""2"",-0.11894273127753303,0.13325991189427314],[""2"",-0.1299559471365639,0.14096916299559473],[""2"",-0.13215859030837004,0.14317180616740088],[""1"",-0.22026431718061673,0.2830396475770925],[""1"",-0.042951541850220265,0.12665198237885464],[""1"",-0.05837004405286344,0.1420704845814978],[""1"",-0.05947136563876652,0.1420704845814978],[""1"",-0.0605726872246696,0.14317180616740088],[""3"",-0.08370044052863436,0.2533039647577093],[""3"",0.025330396475770924,0.15638766519823788],[""3"",0.02643171806167401,0.14537444933920704],[""3"",0.028634361233480177,0.1420704845814978],[""3"",0.02973568281938326,0.13876651982378854],[""3"",0.013215859030837005,0.14757709251101322],[""3"",0.013215859030837005,0.14647577092511013],[""1"",-0.018722466960352423,0.1751101321585903],[""1"",0.10792951541850221,0.13876651982378854],[""1"",0.08920704845814978,0.13105726872246695],[""1"",0.07599118942731277,0.1420704845814978],[""1"",0.07268722466960352,0.14427312775330398],[""3"",-0.009911894273127754,0.14317180616740088],[""3"",-0.011013215859030838,0.14317180616740088],[""2"",-0.14757709251101322,0.14757709251101322],[""2"",-0.08590308370044053,0.1420704845814978],[""2"",-0.06938325991189427,0.13986784140969163],[""2"",-0.07158590308370044,0.13986784140969163],[""2"",-0.07268722466960352,0.14096916299559473],[""3"",0.005506607929515419,0.13876651982378854],[""3"",0.007709251101321586,0.1420704845814978],[""3"",0.005506607929515419,0.14317180616740088],[""3"",0.0022026431718061676,0.14537444933920704],[""3"",-0.0011013215859030838,0.14427312775330398],[""4"",-0.015418502202643172,0.276431718061674],[""4"",0.02643171806167401,0.2566079295154185],[""4"",0.08149779735682819,0.21916299559471367],[""4"",0.14757709251101322,0.15198237885462554],[""4"",0.13325991189427314,0.14537444933920704],[""4"",0.1299559471365639,0.14427312775330398],[""4"",0.1277533039647577,0.14427312775330398],[""4"",0.1343612334801762,0.15638766519823788],[""4"",0.1960352422907489,0.15198237885462554],[""4"",0.21035242290748898,0.14537444933920704],[""5"",0.14317180616740088,0.13986784140969163],[""5"",0.14537444933920704,0.13876651982378854],[""5"",0.13656387665198239,0.14537444933920704],[""5"",0.12665198237885464,0.1486784140969163],[""4"",0.16519823788546256,0.14317180616740088],[""4"",0.17400881057268722,0.14977973568281938],[""4"",0.1817180616740088,0.14977973568281938],[""6"",0.04185022026431718,0.29625550660792954],[""6"",0.0947136563876652,0.27312775330396477],[""6"",0.24559471365638766,0.16079295154185022],[""6"",0.24118942731277532,0.15748898678414097],[""6"",0.23348017621145375,0.15198237885462554],[""6"",0.23458149779735682,0.14757709251101322],[""6"",0.2356828193832599,0.14757709251101322],[""6"",0.2356828193832599,0.1486784140969163],[""4"",0.2830396475770925,0.14427312775330398],[""4"",0.2841409691629956,0.14427312775330398],[""6"",0.1685022026431718,0.15088105726872247],[""6"",0.1762114537444934,0.1486784140969163],[""6"",0.1828193832599119,0.14757709251101322],[""4"",0.24118942731277532,0.14757709251101322],[""4"",0.22466960352422907,0.14757709251101322],[""4"",0.22466960352422907,0.14977973568281938],[""4"",0.23237885462555066,0.15088105726872247],[""7"",0.2918502202643172,0.19273127753303965],[""7"",0.29845814977973567,0.13656387665198239],[""7"",0.28854625550660795,0.14647577092511013],[""2"",-0.13766519823788545,0.14537444933920704],[""2"",-0.14647577092511013,0.14647577092511013],[""6"",0.17951541850220265,0.15418502202643172],[""6"",-0.09140969162995595,0.15748898678414097],[""6"",-0.07378854625550661,0.14977973568281938]]",12,0.515,167.892,"[[""C"",""B""],[""E"",""B""],[""E"",""C""],[""D"",""C""],[""D"",""A""],[""D"",""F""],[""G"",""F""],[""G"",""D""],[""E"",""C""],[""E"",""A""],[""E"",""F""],[""B"",""F""]]",,,0.484581498,-0.344713656,1,0,0,[],0,[],0.5,28.722,0,1,1,1,1,materials/merge_sort/imgs/fruits/banana,12,,,,,,,,,,,,,,,,,,,,,,,,,,,,,,,,,,,,,,
,,,,,,,,,,,,,,,,,,,,,,,,,,,,,,,,,,,,,,,,,,,,,,,,,,,,,,,,,,,,jl03,001,2021-10-11_15h59.19.109,seq_teaching_exp,2021.2.3,Win32,59.88023952,,,,,,,,,,,,,,,,,,,,,,,,,,,,,,,,C,F,"C,F,H,D,E,A,B,G",0.486784141,-0.360132159,1,0,0,"[""7"",""6"",""5"",""8"",""4"",""3"",""2"",""1""]","[""'B'"",""'A'"",""'E'"",""'G'"",""'F'"",""'D'"",""'H'"",""'C'""]","[[""2"",-0.1288546255506608,0.15528634361233482],[""2"",-0.16079295154185022,0.12665198237885464],[""1"",-0.2555066079295154,0.30066079295154186],[""1"",-0.14096916299559473,0.23237885462555066],[""1"",-0.13656387665198239,0.2301762114537445],[""1"",-0.0881057268722467,0.11674008810572688],[""1"",-0.11674008810572688,0.12444933920704845],[""1"",-0.11343612334801761,0.1277533039647577],[""1"",-0.10462555066079295,0.12665198237885464],[""2"",-0.15969162995594713,0.1299559471365639],[""2"",-0.14757709251101322,0.1288546255506608],[""2"",-0.14647577092511013,0.1288546255506608],[""1"",-0.08149779735682819,0.1288546255506608],[""1"",-0.07378854625550661,0.13215859030837004],[""1"",-0.07268722466960352,0.13325991189427314],[""1"",-0.08370044052863436,0.13325991189427314],[""3"",-0.16299559471365638,0.2533039647577093],[""3"",-0.19273127753303965,0.13325991189427314],[""3"",-0.1905286343612335,0.1288546255506608],[""3"",-0.19383259911894274,0.1354625550660793],[""3"",-0.19383259911894274,0.13766519823788545],[""1"",-0.04185022026431718,0.1354625550660793],[""1"",-0.02643171806167401,0.1343612334801762],[""4"",-0.042951541850220265,0.2753303964757709],[""4"",0.009911894273127754,0.24559471365638766],[""4"",0.03303964757709251,0.22466960352422907],[""4"",0.12334801762114538,0.1222466960352423],[""4"",0.1145374449339207,0.14096916299559473],[""4"",0.11343612334801761,0.14096916299559473],[""5"",-0.06497797356828194,0.21365638766519823],[""5"",-0.09251101321585903,0.14977973568281938],[""5"",-0.10022026431718062,0.13766519823788545],[""5"",-0.10352422907488987,0.13325991189427314],[""5"",-0.17731277533039647,0.21916299559471367],[""5"",-0.1685022026431718,0.19383259911894274],[""6"",-0.037444933920704845,0.27422907488986786],[""6"",-0.12665198237885464,0.1949339207048458],[""6"",-0.12665198237885464,0.19162995594713655],[""1"",0.013215859030837005,0.1420704845814978],[""1"",0.013215859030837005,0.14317180616740088],[""7"",0.025330396475770924,0.28634361233480177],[""7"",-0.08039647577092511,0.18612334801762115],[""8"",-0.016519823788546256,0.2433920704845815],[""8"",-0.018722466960352423,0.2356828193832599],[""4"",0.13325991189427314,0.14537444933920704],[""4"",0.197136563876652,0.1420704845814978],[""1"",0.04405286343612335,0.14647577092511013],[""1"",0.13656387665198239,0.1354625550660793],[""1"",0.15638766519823788,0.13105726872246695],[""1"",0.14317180616740088,0.14096916299559473],[""1"",0.13986784140969163,0.14096916299559473],[""4"",0.20814977973568283,0.14647577092511013],[""4"",0.20374449339207049,0.14537444933920704],[""1"",0.15859030837004406,0.14757709251101322],[""1"",0.15088105726872247,0.1420704845814978],[""1"",0.15308370044052863,0.14317180616740088],[""8"",-0.02753303964757709,0.23898678414096916],[""8"",-0.1420704845814978,0.24559471365638766],[""3"",-0.197136563876652,0.1288546255506608],[""3"",-0.025330396475770924,0.23458149779735682],[""3"",-0.07819383259911894,0.2588105726872247],[""8"",-0.13766519823788545,0.276431718061674],[""3"",-0.08700440528634361,0.28193832599118945],[""3"",-0.08700440528634361,0.28083700440528636],[""3"",-0.08700440528634361,0.2786343612334802],[""5"",-0.18722466960352424,0.22356828193832598],[""5"",-0.21145374449339208,0.2918502202643172],[""5"",-0.2026431718061674,0.2786343612334802],[""5"",-0.19933920704845814,0.27422907488986786],[""6"",-0.1420704845814978,0.20044052863436124],[""6"",-0.2830396475770925,0.2709251101321586],[""6"",-0.28083700440528636,0.27422907488986786],[""2"",-0.1299559471365639,0.13766519823788545],[""2"",0.09581497797356828,0.12334801762114538],[""2"",0.10792951541850221,0.13876651982378854],[""2"",0.10682819383259912,0.13986784140969163],[""3"",0.05066079295154185,0.15088105726872247],[""3"",0.06607929515418502,0.1354625550660793],[""7"",-0.1354625550660793,0.1299559471365639],[""7"",-0.14096916299559473,0.13215859030837004],[""6"",-0.1354625550660793,0.17841409691629956],[""6"",-0.09140969162995595,0.14977973568281938],[""6"",-0.09030837004405286,0.15859030837004406],[""6"",-0.09140969162995595,0.15198237885462554],[""7"",-0.1894273127753304,0.16629955947136563],[""7"",-0.19162995594713655,0.16740088105726872],[""6"",-0.15308370044052863,0.17070484581497797],[""6"",-0.14647577092511013,0.17070484581497797],[""5"",-0.20814977973568283,0.2621145374449339],[""5"",-0.22797356828193832,0.19823788546255505],[""5"",-0.2290748898678414,0.19933920704845814],[""5"",-0.23458149779735682,0.24008810572687225],[""5"",-0.2356828193832599,0.2610132158590308],[""5"",-0.2356828193832599,0.263215859030837],[""5"",-0.23237885462555066,0.23348017621145375],[""5"",-0.23348017621145375,0.18061674008810572],[""5"",-0.23348017621145375,0.17290748898678415],[""5"",-0.23237885462555066,0.17070484581497797],[""8"",-0.17841409691629956,0.2654185022026432],[""8"",-0.30286343612334804,0.1828193832599119],[""8"",-0.27973568281938327,0.1696035242290749]]",15,0.516,186.195,"[[""B"",""A""],[""B"",""E""],[""B"",""G""],[""B"",""F""],[""B"",""D""],[""B"",""H""],[""B"",""C""],[""C"",""E""],[""F"",""E""],[""D"",""E""],[""H"",""E""],[""A"",""E""],[""D"",""H""],[""F"",""H""],[""F"",""C""]]",,,0.537444934,-0.343612335,1,0,0,[],0,[],0.5,16.214,0,2,2,2,1,materials/merge_sort/imgs/fruits/apple,13,,,,,,,,,,,,,,,,,,,,,,,,,,,,,,,,,,,,,,
,,,,,,,,,,,,,,,,,,,,,,,,,,,,,,,,,,,,,,,,,,,,,,,,,,,,,,,,,,,,jl03,001,2021-10-11_15h59.19.109,seq_teaching_exp,2021.2.3,Win32,59.88023952,,,,,,,,,,,,,,,,,,,,,,,,,,,,,,,,A,D,,-0.623348018,-0.066079295,0,0,0,"[""8"",""6"",""4"",""3"",""2"",""10"",""9"",""7"",""1"",""5""]","[""'G'"",""'C'"",""'E'"",""'J'"",""'I'"",""'H'"",""'F'"",""'B'"",""'D'"",""'A'""]","[[""2"",-0.1883259911894273,0.15638766519823788],[""2"",-0.21475770925110133,0.13656387665198239],[""1"",-0.19273127753303965,0.2599118942731278],[""1"",-0.015418502202643172,0.1277533039647577],[""1"",0.0605726872246696,0.1211453744493392],[""1"",0.12334801762114538,0.13215859030837004],[""1"",0.11233480176211454,0.1288546255506608],[""1"",0.014317180616740088,0.13215859030837004],[""1"",0.009911894273127754,0.13215859030837004],[""1"",-0.0022026431718061676,0.1211453744493392],[""1"",-0.037444933920704845,0.15748898678414097],[""1"",-0.05616740088105727,0.12665198237885464],[""1"",-0.014317180616740088,0.1354625550660793],[""1"",-0.012114537444933921,0.1420704845814978],[""1"",-0.018722466960352423,0.1288546255506608],[""1"",-0.024229074889867842,0.1299559471365639],[""1"",-0.022026431718061675,0.13325991189427314],[""1"",-0.02092511013215859,0.1343612334801762],[""1"",-0.019823788546255508,0.1354625550660793],[""1"",-0.023127753303964757,0.1354625550660793],[""1"",-0.024229074889867842,0.1354625550660793],[""1"",-0.025330396475770924,0.1354625550660793],[""1"",-0.011013215859030838,0.14537444933920704],[""1"",0.09801762114537445,0.1277533039647577],[""1"",0.08370044052863436,0.12665198237885464],[""1"",0.08149779735682819,0.13105726872246695],[""1"",0.08039647577092511,0.13215859030837004],[""2"",-0.05616740088105727,0.12444933920704845],[""2"",-0.022026431718061675,0.1354625550660793],[""2"",-0.07599118942731277,0.1288546255506608],[""2"",-0.06167400881057269,0.1277533039647577],[""2"",-0.06167400881057269,0.12444933920704845],[""2"",-0.11343612334801761,0.12555066079295155],[""2"",-0.1288546255506608,0.1277533039647577],[""2"",-0.13325991189427314,0.1288546255506608],[""2"",-0.1354625550660793,0.1288546255506608],[""2"",-0.1343612334801762,0.1288546255506608],[""2"",-0.1288546255506608,0.1277533039647577],[""2"",-0.12555066079295155,0.1277533039647577],[""2"",-0.11233480176211454,0.12665198237885464],[""3"",-0.15418502202643172,0.28634361233480177],[""3"",-0.18612334801762115,0.13876651982378854],[""3"",-0.18612334801762115,0.1277533039647577],[""2"",-0.11343612334801761,0.12555066079295155],[""2"",-0.03634361233480176,0.12555066079295155],[""2"",-0.025330396475770924,0.1277533039647577],[""2"",-0.014317180616740088,0.1299559471365639],[""2"",-0.013215859030837005,0.13215859030837004],[""3"",-0.09581497797356828,0.13215859030837004],[""3"",-0.0881057268722467,0.13325991189427314],[""3"",-0.0881057268722467,0.1343612334801762],[""4"",-0.15198237885462554,0.14317180616740088],[""4"",-0.16299559471365638,0.1299559471365639],[""4"",-0.16409691629955947,0.13105726872246695],[""4"",-0.16409691629955947,0.1343612334801762],[""5"",-0.19162995594713655,0.14427312775330398],[""5"",-0.21585903083700442,0.1277533039647577],[""5"",-0.2422907488986784,0.13766519823788545],[""5"",-0.24559471365638766,0.13766519823788545],[""5"",-0.2544052863436123,0.13766519823788545],[""5"",-0.3303964757709251,0.1343612334801762],[""6"",-0.14537444933920704,0.24559471365638766],[""6"",-0.2433920704845815,0.22136563876651982],[""6"",-0.2422907488986784,0.22026431718061673],[""4"",-0.2522026431718062,0.1299559471365639],[""4"",-0.2654185022026432,0.1343612334801762],[""4"",-0.2610132158590308,0.1343612334801762],[""6"",-0.22026431718061673,0.22356828193832598],[""6"",-0.17070484581497797,0.22136563876651982],[""3"",-0.1486784140969163,0.13105726872246695],[""3"",-0.197136563876652,0.13325991189427314],[""3"",-0.19162995594713655,0.1343612334801762],[""3"",-0.1883259911894273,0.1343612334801762],[""6"",-0.11343612334801761,0.23348017621145375],[""6"",-0.08480176211453745,0.21365638766519823],[""6"",-0.08370044052863436,0.21255506607929514],[""2"",-0.051762114537444934,0.1277533039647577],[""2"",-0.09251101321585903,0.1299559471365639],[""6"",-0.048458149779735685,0.21365638766519823],[""6"",0.005506607929515419,0.21145374449339208],[""6"",0.17400881057268722,0.1960352422907489],[""6"",0.1817180616740088,0.1949339207048458],[""6"",0.17290748898678415,0.1960352422907489],[""6"",0.17180616740088106,0.1960352422907489],[""1"",0.0671806167400881,0.1486784140969163],[""1"",0.051762114537444934,0.15198237885462554],[""6"",0.27422907488986786,0.21145374449339208],[""1"",0.07819383259911894,0.13876651982378854],[""7"",0.16740088105726872,0.16079295154185022],[""7"",0.197136563876652,0.17180616740088106],[""6"",0.2918502202643172,0.183920704845815],[""6"",0.29295154185022027,0.18061674008810572],[""1"",0.07378854625550661,0.12444933920704845],[""1"",0.06167400881057269,0.12334801762114538],[""1"",0.06277533039647577,0.12444933920704845],[""7"",0.1949339207048458,0.1949339207048458],[""8"",0.11343612334801761,0.27312775330396477],[""8"",0.13876651982378854,0.23127753303964757],[""8"",0.13656387665198239,0.236784140969163],[""8"",0.04185022026431718,0.2301762114537445],[""8"",-0.03524229074889868,0.23237885462555066],[""8"",-0.028634361233480177,0.23898678414096916],[""8"",-0.02753303964757709,0.2488986784140969],[""8"",0.11563876651982379,0.2026431718061674],[""8"",0.11674008810572688,0.1949339207048458],[""8"",0.1222466960352423,0.19162995594713655],[""9"",0.02973568281938326,0.2775330396475771],[""9"",0.012114537444933921,0.2665198237885463],[""9"",-0.10462555066079295,0.27973568281938327],[""9"",-0.22136563876651982,0.2687224669603524],[""9"",-0.2533039647577093,0.2599118942731278],[""9"",-0.3700440528634361,0.2444933920704846],[""9"",-0.3634361233480176,0.2488986784140969],[""9"",-0.3623348017621145,0.25],[""9"",-0.3601321585903084,0.25],[""10"",0.006607929515418502,0.30616740088105726],[""10"",-0.11013215859030837,0.31387665198237885],[""10"",-0.1420704845814978,0.31167400881057267],[""10"",-0.06938325991189427,0.32048458149779735],[""10"",-0.015418502202643172,0.30506607929515417]]",29,0.516,240,"[[""G"",""C""],[""E"",""C""],[""E"",""J""],[""I"",""J""],[""I"",""H""],[""J"",""H""],[""E"",""H""],[""C"",""H""],[""G"",""H""],[""G"",""F""],[""H"",""F""],[""B"",""F""],[""B"",""I""],[""B"",""J""],[""B"",""C""],[""B"",""G""],[""B"",""D""],[""D"",""E""],[""D"",""I""],[""D"",""A""],[""C"",""A""],[""J"",""A""],[""E"",""A""],[""C"",""A""],[""G"",""A""],[""B"",""A""],[""F"",""A""],[""H"",""A""],[""D"",""A""]]",,,0.56938326,-0.325991189,1,0,0,[],0,[],0.5,27.802,0,3,3,3,1,materials/merge_sort/imgs/fruits/melon,21,,,,,,,,,,,,,,,,,,,,,,,,,,,,,,,,,,,,,,
,,,,,,,,,,,,,,,,,,,,,,,,,,,,,,,,,,,,,,,,,,,,,,,,,,,,,,,,,,,,jl03,001,2021-10-11_15h59.19.109,seq_teaching_exp,2021.2.3,Win32,59.88023952,,,,,,,,,,,,,,,,,,,,,,,,,,,,,,,,,,,,,,,,,,,,,,,,,,,,,,,,,,,,,,,,materials/merge_sort/imgs/fruits/melon,,0.057268722,-0.36784141,1,0,0,20.489,F,D,"D,F,B,A,C,E",0.534140969,-0.342511013,1,0,0,"[""6"",""3"",""5"",""4"",""2"",""1""]","[""'E'"",""'B'"",""'C'"",""'A'"",""'F'"",""'D'""]","[[""1"",-0.23348017621145375,0.23898678414096916],[""1"",-0.21255506607929514,0.14977973568281938],[""1"",-0.22466960352422907,0.15308370044052863],[""1"",-0.19273127753303965,0.15308370044052863],[""1"",-0.07929515418502203,0.14757709251101322],[""2"",-0.1949339207048458,0.2687224669603524],[""2"",-0.17070484581497797,0.14977973568281938],[""2"",-0.1696035242290749,0.14977973568281938],[""6"",-0.02092511013215859,0.2841409691629956],[""6"",-0.24669603524229075,0.21255506607929514],[""6"",-0.2555066079295154,0.21145374449339208],[""6"",-0.2511013215859031,0.17841409691629956],[""6"",-0.2654185022026432,0.14757709251101322],[""6"",-0.2621145374449339,0.14317180616740088],[""5"",-0.07709251101321586,0.28193832599118945],[""5"",-0.289647577092511,0.21475770925110133],[""5"",-0.30726872246696035,0.21696035242290748],[""6"",-0.32929515418502203,0.14427312775330398],[""6"",-0.3381057268722467,0.1486784140969163],[""5"",-0.2511013215859031,0.1420704845814978],[""5"",-0.25,0.15198237885462554],[""5"",-0.2511013215859031,0.15748898678414097],[""1"",-0.06277533039647577,0.15308370044052863],[""1"",0.05837004405286344,0.15748898678414097],[""2"",-0.12665198237885464,0.14977973568281938],[""2"",-0.040748898678414094,0.15418502202643172],[""2"",-0.039647577092511016,0.15528634361233482],[""5"",-0.1685022026431718,0.1685022026431718],[""5"",-0.16629955947136563,0.15859030837004406],[""1"",0.15198237885462554,0.16299559471365638],[""1"",0.1762114537444934,0.16299559471365638],[""2"",0.016519823788546256,0.16740088105726872],[""2"",0.011013215859030838,0.16519823788546256],[""4"",-0.263215859030837,0.23348017621145375],[""4"",-0.2599118942731278,0.23127753303964757],[""1"",0.2290748898678414,0.16740088105726872],[""1"",0.24779735682819384,0.1685022026431718],[""2"",0.02092511013215859,0.19933920704845814],[""2"",0.009911894273127754,0.1949339207048458],[""2"",-0.015418502202643172,0.16079295154185022],[""2"",-0.013215859030837005,0.15528634361233482],[""4"",-0.09030837004405286,0.22466960352422907],[""4"",0.04405286343612335,0.22246696035242292],[""4"",0.16079295154185022,0.1696035242290749],[""4"",0.12334801762114538,0.16740088105726872],[""4"",0.1222466960352423,0.16740088105726872],[""1"",0.29845814977973567,0.16629955947136563],[""1"",0.3436123348017621,0.1618942731277533],[""3"",-0.0947136563876652,0.2841409691629956],[""3"",-0.037444933920704845,0.2720264317180617],[""3"",0.236784140969163,0.17290748898678415],[""3"",0.23127753303964757,0.16299559471365638]]","[[""E"",""B""],[""D"",""B""],[""F"",""B""],[""F"",""D""],[""A"",""D""],[""A"",""F""],[""A"",""B""],[""A"",""E""],[""A"",""C""],[""E"",""C""],[""D"",""F""]]",11,0.515,112.367,0,0,0,0,1,,,,,,,,,,,,
,,,,,,,,,,,,,,,,,,,,,,,,,,,,,,,,,,,,,,,,,,,,,,,,,,,,,,,,,,,,jl03,001,2021-10-11_15h59.19.109,seq_teaching_exp,2021.2.3,Win32,59.88023952,,,,,,,,,,,,,,,,,,,,,,,,,,,,,,,,,,,,,,,,,,,,,,,,,,,,,,,,,,,,,,,,materials/merge_sort/imgs/fruits/banana,,,,,,,,B,E,"E,B,F,A,C,D",0.446035242,-0.368942731,1,0,0,"[""4"",""6"",""5"",""2"",""3"",""1""]","[""'A'"",""'D'"",""'C'"",""'B'"",""'F'"",""'E'""]","[[""1"",-0.22136563876651982,0.2444933920704846],[""1"",-0.197136563876652,0.1354625550660793],[""1"",-0.22687224669603523,0.15969162995594713],[""2"",-0.14096916299559473,0.23898678414096916],[""2"",-0.06607929515418502,0.14647577092511013],[""2"",-0.024229074889867842,0.1354625550660793],[""2"",-0.039647577092511016,0.15528634361233482],[""2"",-0.040748898678414094,0.15638766519823788],[""2"",-0.040748898678414094,0.15748898678414097],[""2"",-0.07048458149779736,0.15969162995594713],[""2"",-0.07709251101321586,0.15969162995594713],[""2"",-0.08370044052863436,0.15859030837004406],[""2"",-0.07599118942731277,0.15198237885462554],[""2"",-0.07599118942731277,0.15418502202643172],[""2"",-0.07709251101321586,0.15418502202643172],[""3"",-0.14757709251101322,0.2841409691629956],[""3"",-0.14537444933920704,0.16629955947136563],[""2"",0.06387665198237885,0.15308370044052863],[""3"",-0.06607929515418502,0.16079295154185022],[""3"",-0.07158590308370044,0.15198237885462554],[""3"",-0.1222466960352423,0.15859030837004406],[""3"",-0.12444933920704845,0.15969162995594713],[""4"",-0.03854625550660793,0.20594713656387664],[""4"",-0.015418502202643172,0.15308370044052863],[""4"",-0.02092511013215859,0.15969162995594713],[""4"",-0.05286343612334802,0.15859030837004406],[""4"",-0.3370044052863436,0.15969162995594713],[""4"",-0.3248898678414097,0.16409691629955947],[""5"",-0.22136563876651982,0.30066079295154186],[""5"",-0.23348017621145375,0.29845814977973567],[""3"",-0.08700440528634361,0.16079295154185022],[""3"",-0.07929515418502203,0.15859030837004406],[""1"",-0.1828193832599119,0.16079295154185022],[""1"",-0.15748898678414097,0.16299559471365638],[""5"",-0.24008810572687225,0.21475770925110133],[""5"",-0.236784140969163,0.1685022026431718],[""5"",-0.23788546255506607,0.16629955947136563],[""6"",-0.05286343612334802,0.3039647577092511],[""6"",-0.2775330396475771,0.28083700440528636],[""6"",-0.2973568281938326,0.2852422907488987],[""6"",-0.3777533039647577,0.2775330396475771],[""6"",-0.3601321585903084,0.2643171806167401],[""6"",-0.3711453744493392,0.2643171806167401],[""6"",-0.3700440528634361,0.263215859030837],[""6"",-0.368942731277533,0.263215859030837],[""6"",-0.368942731277533,0.2621145374449339]]","[[""A"",""D""],[""C"",""D""],[""B"",""D""],[""B"",""C""],[""B"",""A""],[""C"",""A""],[""C"",""F""],[""A"",""F""],[""B"",""F""],[""E"",""F""],[""E"",""B""]]",11,0.516,94.164,0,1,1,1,1,,,,,,,,,,,,
,,,,,,,,,,,,,,,,,,,,,,,,,,,,,,,,,,,,,,,,,,,,,,,,,,,,,,,,,,,,jl03,001,2021-10-11_15h59.19.109,seq_teaching_exp,2021.2.3,Win32,59.88023952,,,,,,,,,,,,,,,,,,,,,,,,,,,,,,,,,,,,,,,,,,,,,,,,,,,,,,,,,,,,,,,,materials/merge_sort/imgs/fruits/apple,,,,,,,,C,G,"G,C,E,A,F,D,B",0.466960352,-0.330396476,1,0,0,"[""7"",""5"",""3"",""6"",""1"",""4"",""2""]","[""'B'"",""'F'"",""'E'"",""'D'"",""'G'"",""'A'"",""'C'""]","[[""2"",-0.17731277533039647,0.2566079295154185],[""2"",-0.14427312775330398,0.1211453744493392],[""2"",-0.1299559471365639,0.13215859030837004],[""1"",0.006607929515418502,0.13105726872246695],[""1"",0.011013215859030838,0.13986784140969163],[""1"",0.05286343612334802,0.13656387665198239],[""1"",0.0671806167400881,0.13656387665198239],[""3"",-0.18502202643171806,0.2555066079295154],[""3"",-0.25,0.14647577092511013],[""3"",-0.25,0.13766519823788545],[""3"",-0.2687224669603524,0.13215859030837004],[""3"",-0.2720264317180617,0.13105726872246695],[""2"",-0.10792951541850221,0.13656387665198239],[""2"",-0.10242290748898679,0.1343612334801762],[""4"",-0.15198237885462554,0.22466960352422907],[""4"",-0.17400881057268722,0.22136563876651982],[""4"",-0.20374449339207049,0.22577092511013216],[""4"",0.012114537444933921,0.21255506607929514],[""4"",0.005506607929515419,0.20814977973568283],[""4"",-0.003303964757709251,0.2092511013215859],[""1"",0.19933920704845814,0.13325991189427314],[""1"",0.197136563876652,0.1354625550660793],[""4"",0.025330396475770924,0.18722466960352424],[""4"",0.05616740088105727,0.13986784140969163],[""4"",0.05506607929515418,0.13986784140969163],[""5"",-0.0473568281938326,0.30176211453744495],[""5"",-0.0473568281938326,0.24008810572687225],[""5"",-0.04955947136563876,0.23898678414096916],[""5"",-0.13766519823788545,0.23788546255506607],[""5"",-0.1817180616740088,0.2290748898678414],[""5"",-0.2720264317180617,0.2301762114537445],[""5"",-0.3458149779735683,0.21255506607929514],[""5"",-0.34801762114537443,0.1486784140969163],[""5"",-0.3513215859030837,0.14537444933920704],[""3"",-0.22797356828193832,0.14977973568281938],[""3"",-0.21255506607929514,0.14537444933920704],[""6"",-0.08920704845814978,0.2720264317180617],[""6"",-0.10572687224669604,0.2643171806167401],[""2"",-0.09251101321585903,0.15308370044052863],[""2"",-0.05947136563876652,0.15528634361233482],[""6"",-0.12004405286343613,0.2709251101321586],[""6"",-0.1354625550660793,0.17951541850220265],[""6"",-0.1343612334801762,0.16740088105726872],[""7"",-0.022026431718061675,0.31167400881057267],[""7"",-0.023127753303964757,0.31718061674008813],[""7"",-0.10903083700440529,0.30837004405286345],[""7"",-0.11894273127753303,0.30726872246696035],[""7"",-0.2444933920704846,0.28854625550660795],[""7"",-0.2852422907488987,0.27973568281938327],[""7"",-0.2852422907488987,0.2422907488986784],[""7"",-0.28193832599118945,0.15969162995594713],[""7"",-0.28083700440528636,0.15859030837004406],[""7"",-0.2775330396475771,0.15418502202643172]]","[[""B"",""F""],[""E"",""F""],[""E"",""D""],[""F"",""D""],[""B"",""D""],[""G"",""D""],[""F"",""D""],[""G"",""F""],[""G"",""E""],[""A"",""E""],[""A"",""F""],[""A"",""E""],[""A"",""C""],[""E"",""C""],[""G"",""C""]]",15,0.516,121.068,0,2,2,2,1,,,,,,,,,,,,
,,,,,,,,,,,,,,,,,,,,,,,,,,,,,,,,,,,,,,,,,,,,,,,,,,,,,,,,,,,,jl03,001,2021-10-11_15h59.19.109,seq_teaching_exp,2021.2.3,Win32,59.88023952,,,,,,,,,,,,,,,,,,,,,,,,,,,,,,,,,,,,,,,,,,,,,,,,,,,,,,,,,,,,,,,,materials/merge_sort/imgs/fruits/banana,,,,,,,,E,C,"F,G,C,E,B,A,D",0.530837004,-0.345814978,1,0,0,"[""4"",""7"",""2"",""6"",""3"",""5"",""1""]","[""'E'"",""'D'"",""'G'"",""'A'"",""'C'"",""'B'"",""'F'""]","[[""1"",-0.23127753303964757,0.14317180616740088],[""1"",-0.30837004405286345,0.14317180616740088],[""1"",-0.30837004405286345,0.14096916299559473],[""2"",-0.20374449339207049,0.289647577092511],[""2"",-0.046255506607929514,0.1288546255506608],[""2"",0.03524229074889868,0.13986784140969163],[""2"",0.13876651982378854,0.13215859030837004],[""2"",0.23348017621145375,0.1420704845814978],[""2"",0.23458149779735682,0.1420704845814978],[""1"",-0.30947136563876654,0.15859030837004406],[""1"",-0.05506607929515418,0.13325991189427314],[""1"",-0.05506607929515418,0.1343612334801762],[""3"",-0.2720264317180617,0.1751101321585903],[""3"",-0.2918502202643172,0.14427312775330398],[""3"",-0.289647577092511,0.13986784140969163],[""4"",0.12444933920704845,0.16299559471365638],[""4"",0.11233480176211454,0.14757709251101322],[""4"",0.1013215859030837,0.1420704845814978],[""4"",0.10022026431718062,0.1420704845814978],[""5"",-0.08259911894273128,0.23127753303964757],[""5"",-0.11784140969162996,0.23237885462555066],[""5"",-0.17951541850220265,0.15528634361233482],[""5"",-0.18061674008810572,0.14537444933920704],[""5"",-0.17841409691629956,0.13986784140969163],[""5"",-0.17841409691629956,0.13876651982378854],[""5"",-0.17951541850220265,0.13876651982378854],[""6"",-0.016519823788546256,0.30947136563876654],[""6"",-0.10792951541850221,0.2907488986784141],[""6"",-0.21145374449339208,0.2687224669603524],[""6"",-0.21035242290748898,0.27422907488986786],[""6"",-0.21035242290748898,0.2753303964757709],[""6"",0.007709251101321586,0.14757709251101322],[""6"",0.016519823788546256,0.14537444933920704],[""7"",0.012114537444933921,0.30616740088105726],[""7"",-0.08700440528634361,0.29515418502202645],[""7"",-0.10242290748898679,0.29625550660792954],[""7"",-0.1949339207048458,0.263215859030837],[""7"",-0.2290748898678414,0.2533039647577093],[""7"",-0.3513215859030837,0.16409691629955947],[""7"",-0.3491189427312775,0.14096916299559473],[""7"",-0.34691629955947134,0.13766519823788545]]","[[""E"",""D""],[""E"",""G""],[""E"",""A""],[""D"",""A""],[""C"",""A""],[""C"",""E""],[""C"",""G""],[""B"",""G""],[""C"",""G""],[""E"",""G""],[""A"",""G""],[""D"",""G""],[""D"",""B""],[""A"",""B""],[""E"",""B""],[""F"",""B""],[""F"",""C""],[""F"",""G""],[""C"",""E""]]",19,0.5,130.687,0,3,3,3,1,,,,,,,,,,,,
,,,,,,,,,,,,,,,,,,,,,,,,,,,,,,,,,,,,,,,,,,,,,,,,,,,,,,,,,,,,jl03,001,2021-10-11_15h59.19.109,seq_teaching_exp,2021.2.3,Win32,59.88023952,,,,,,,,,,,,,,,,,,,,,,,,,,,,,,,,,,,,,,,,,,,,,,,,,,,,,,,,,,,,,,,,materials/merge_sort/imgs/fruits/melon,,,,,,,,A,H,"G,F,D,B,E,C,H,A",0.466960352,-0.350220264,1,0,0,"[""8"",""7"",""6"",""5"",""4"",""3"",""2"",""1""]","[""'A'"",""'H'"",""'C'"",""'E'"",""'B'"",""'D'"",""'F'"",""'G'""]","[[""1"",-0.24118942731277532,0.2698237885462555],[""1"",-0.10682819383259912,0.13215859030837004],[""1"",0.037444933920704845,0.14757709251101322],[""2"",-0.16519823788546256,0.22136563876651982],[""2"",-0.13325991189427314,0.15418502202643172],[""2"",-0.14096916299559473,0.14537444933920704],[""2"",-0.15528634361233482,0.14317180616740088],[""3"",-0.15748898678414097,0.29955947136563876],[""3"",-0.3314977973568282,0.14317180616740088],[""3"",-0.3392070484581498,0.13986784140969163],[""3"",-0.3392070484581498,0.14096916299559473],[""1"",0.1894273127753304,0.13986784140969163],[""1"",0.24008810572687225,0.1420704845814978],[""2"",0.034140969162995596,0.14427312775330398],[""2"",0.011013215859030838,0.14096916299559473],[""2"",-0.006607929515418502,0.14427312775330398],[""2"",-0.011013215859030838,0.14537444933920704],[""3"",-0.20484581497797358,0.15528634361233482],[""3"",-0.16519823788546256,0.15638766519823788],[""4"",-0.29295154185022027,0.1751101321585903],[""4"",-0.32819383259911894,0.16409691629955947],[""5"",-0.24559471365638766,0.29405286343612336],[""5"",-0.2488986784140969,0.31057268722466963],[""5"",-0.381057268722467,0.263215859030837],[""5"",-0.3733480176211454,0.22797356828193832],[""4"",-0.289647577092511,0.16079295154185022],[""4"",-0.2566079295154185,0.15528634361233482],[""3"",-0.10022026431718062,0.15969162995594713],[""2"",0.05506607929515418,0.15308370044052863],[""2"",0.1288546255506608,0.15748898678414097],[""1"",0.31938325991189426,0.15308370044052863],[""1"",0.32158590308370044,0.15308370044052863],[""3"",-0.05947136563876652,0.16629955947136563],[""4"",-0.197136563876652,0.16629955947136563],[""4"",-0.197136563876652,0.16519823788546256],[""5"",-0.3590308370044053,0.1696035242290749],[""5"",-0.36123348017621143,0.15859030837004406],[""5"",-0.3634361233480176,0.15638766519823788],[""6"",-0.07929515418502203,0.3039647577092511],[""6"",-0.0881057268722467,0.30286343612334804],[""6"",-0.13105726872246695,0.3039647577092511],[""6"",-0.3436123348017621,0.2786343612334802],[""6"",-0.3656387665198238,0.24669603524229075],[""5"",-0.2918502202643172,0.1618942731277533],[""5"",-0.28193832599118945,0.16409691629955947],[""4"",-0.15859030837004406,0.17070484581497797],[""3"",-0.02973568281938326,0.16740088105726872],[""3"",0.016519823788546256,0.1685022026431718],[""2"",0.19933920704845814,0.1685022026431718],[""4"",-0.11784140969162996,0.17400881057268722],[""4"",-0.11674008810572688,0.17400881057268722],[""5"",-0.2522026431718062,0.17400881057268722],[""6"",-0.35462555066079293,0.21365638766519823],[""6"",-0.3601321585903084,0.15528634361233482],[""6"",-0.355726872246696,0.15859030837004406],[""7"",0.04185022026431718,0.31497797356828194],[""7"",-0.09911894273127753,0.2918502202643172],[""7"",-0.183920704845815,0.29625550660792954],[""7"",-0.1949339207048458,0.29845814977973567],[""7"",-0.2588105726872247,0.29295154185022027],[""7"",-0.30286343612334804,0.2830396475770925],[""3"",0.08370044052863436,0.17400881057268722],[""4"",-0.03634361233480176,0.18061674008810572],[""5"",-0.2433920704845815,0.1762114537444934],[""5"",-0.21255506607929514,0.17841409691629956],[""6"",-0.29955947136563876,0.183920704845815],[""6"",-0.29295154185022027,0.183920704845815],[""7"",-0.3711453744493392,0.21035242290748898],[""7"",-0.3700440528634361,0.1696035242290749],[""7"",-0.3590308370044053,0.18061674008810572],[""7"",-0.3590308370044053,0.1817180616740088],[""5"",-0.1618942731277533,0.17951541850220265],[""5"",-0.11784140969162996,0.17731277533039647],[""4"",0.006607929515418502,0.18502202643171806],[""3"",0.09911894273127753,0.1817180616740088],[""3"",0.1343612334801762,0.183920704845815],[""2"",0.24779735682819384,0.18061674008810572],[""6"",-0.21035242290748898,0.18722466960352424],[""7"",-0.31607929515418504,0.18612334801762115],[""7"",-0.29955947136563876,0.18502202643171806],[""8"",0.037444933920704845,0.28854625550660795],[""6"",-0.3832599118942731,0.1883259911894273],[""8"",0.00881057268722467,0.28083700440528636],[""6"",-0.3645374449339207,0.1949339207048458],[""6"",-0.22466960352422907,0.1960352422907489],[""6"",-0.21145374449339208,0.1883259911894273],[""6"",-0.19823788546255505,0.18612334801762115],[""8"",-0.005506607929515419,0.28083700440528636],[""6"",-0.34140969162995594,0.183920704845815],[""8"",-0.024229074889867842,0.2753303964757709],[""6"",-0.34691629955947134,0.19823788546255505],[""6"",-0.20484581497797358,0.1883259911894273],[""6"",-0.2026431718061674,0.18722466960352424],[""8"",-0.09030837004405286,0.289647577092511],[""8"",-0.11674008810572688,0.28744493392070486],[""8"",-0.1343612334801762,0.29295154185022027],[""8"",-0.1211453744493392,0.30837004405286345],[""8"",-0.34251101321585903,0.29295154185022027],[""8"",-0.36784140969163,0.19823788546255505],[""8"",-0.36784140969163,0.1828193832599119],[""8"",-0.36784140969163,0.1817180616740088],[""1"",0.34691629955947134,0.19933920704845814],[""1"",0.34691629955947134,0.19823788546255505]]","[[""A"",""H""],[""C"",""H""],[""E"",""H""],[""E"",""C""],[""B"",""C""],[""B"",""E""],[""D"",""C""],[""D"",""E""],[""D"",""B""],[""F"",""C""],[""F"",""B""],[""F"",""D""],[""G"",""D""],[""G"",""F""],[""H"",""A""]]",15,0.521,133.225,0,4,4,4,1,,,,,,,,,,,,
,,,,,,,,,,,,,,,,,,,,,,,,,,,,,,,,,,,,,,,,,,,,,,,,,,,,,,,,,,,,jl03,001,2021-10-11_15h59.19.109,seq_teaching_exp,2021.2.3,Win32,59.88023952,,,,,,,,,,,,,,,,,,,,,,,,,,,,,,,,,,,,,,,,,,,,,,,,,,,,,,,,,,,,,,,,materials/merge_sort/imgs/fruits/apple,,,,,,,,D,A,"F,D,A,B,E,H,I,C,G,J",0.471365639,-0.344713656,1,0,0,"[""5"",""7"",""6"",""1"",""4"",""9"",""8"",""10"",""2"",""3""]","[""'E'"",""'I'"",""'H'"",""'F'"",""'B'"",""'G'"",""'C'"",""'J'"",""'D'"",""'A'""]","[[""1"",-0.24008810572687225,0.22026431718061673],[""1"",-0.24559471365638766,0.1762114537444934],[""1"",-0.24669603524229075,0.1762114537444934],[""1"",-0.2511013215859031,0.17070484581497797],[""1"",-0.25,0.16079295154185022],[""1"",-0.21696035242290748,0.13766519823788545],[""1"",-0.10792951541850221,0.12334801762114538],[""1"",-0.15859030837004406,0.1343612334801762],[""2"",-0.1685022026431718,0.2599118942731278],[""2"",0.05066079295154185,0.12444933920704845],[""2"",0.028634361233480177,0.1277533039647577],[""2"",0.018722466960352423,0.1288546255506608],[""2"",0.01762114537444934,0.1354625550660793],[""2"",0.17180616740088106,0.1288546255506608],[""2"",0.1905286343612335,0.1299559471365639],[""3"",-0.05066079295154185,0.16299559471365638],[""3"",-0.023127753303964757,0.14317180616740088],[""1"",-0.2643171806167401,0.13325991189427314],[""3"",-0.07819383259911894,0.1277533039647577],[""3"",-0.07709251101321586,0.1277533039647577],[""4"",-0.09581497797356828,0.29625550660792954],[""4"",-0.16629955947136563,0.13325991189427314],[""4"",-0.18502202643171806,0.13766519823788545],[""4"",-0.20374449339207049,0.24669603524229075],[""4"",-0.21035242290748898,0.2555066079295154],[""4"",-0.2422907488986784,0.25],[""4"",-0.3524229074889868,0.12444933920704845],[""4"",-0.3513215859030837,0.12444933920704845],[""1"",-0.21806167400881057,0.13656387665198239],[""1"",-0.17070484581497797,0.1343612334801762],[""1"",-0.1685022026431718,0.13215859030837004],[""3"",-0.06938325991189427,0.13766519823788545],[""3"",0.01762114537444934,0.13656387665198239],[""2"",0.2786343612334802,0.14317180616740088],[""3"",0.07929515418502203,0.13986784140969163],[""3"",0.07048458149779736,0.1288546255506608],[""3"",0.06387665198237885,0.1288546255506608],[""2"",0.2841409691629956,0.13766519823788545],[""2"",0.28854625550660795,0.12555066079295155],[""5"",-0.2654185022026432,0.2444933920704846],[""5"",-0.26762114537444937,0.2444933920704846],[""5"",-0.2599118942731278,0.1883259911894273],[""5"",-0.25,0.1288546255506608],[""5"",-0.2488986784140969,0.1277533039647577],[""1"",-0.15969162995594713,0.1299559471365639],[""1"",-0.03854625550660793,0.13215859030837004],[""5"",-0.20594713656387664,0.1343612334801762],[""5"",-0.19383259911894274,0.1354625550660793],[""5"",-0.10682819383259912,0.1299559471365639],[""5"",-0.1288546255506608,0.12444933920704845],[""5"",-0.1299559471365639,0.12444933920704845],[""4"",-0.20154185022026433,0.1343612334801762],[""4"",-0.22026431718061673,0.12444933920704845],[""4"",-0.23237885462555066,0.12555066079295155],[""6"",0.0022026431718061676,0.2643171806167401],[""6"",0.005506607929515419,0.2544052863436123],[""6"",0.13105726872246695,0.21365638766519823],[""2"",0.3314977973568282,0.15748898678414097],[""6"",0.20594713656387664,0.19162995594713655],[""2"",0.3248898678414097,0.13876651982378854],[""2"",0.17400881057268722,0.1343612334801762],[""2"",0.16740088105726872,0.1222466960352423],[""6"",0.21806167400881057,0.19273127753303965],[""6"",0.2907488986784141,0.1288546255506608],[""2"",0.19162995594713655,0.13986784140969163],[""7"",0.13986784140969163,0.2092511013215859],[""7"",0.27973568281938327,0.1343612334801762],[""7"",0.24669603524229075,0.1420704845814978],[""7"",0.2422907488986784,0.15969162995594713],[""6"",0.34251101321585903,0.1288546255506608],[""7"",0.2654185022026432,0.13215859030837004],[""7"",0.2698237885462555,0.1288546255506608],[""7"",0.27422907488986786,0.13215859030837004],[""2"",0.1894273127753304,0.1354625550660793],[""2"",0.1883259911894273,0.12665198237885464],[""2"",0.1685022026431718,0.1288546255506608],[""2"",0.16079295154185022,0.1288546255506608],[""7"",0.22687224669603523,0.1299559471365639],[""7"",0.22466960352422907,0.1299559471365639],[""6"",0.2918502202643172,0.1354625550660793],[""6"",0.2852422907488987,0.1354625550660793],[""8"",0.1013215859030837,0.30616740088105726],[""8"",0.3535242290748899,0.14427312775330398],[""8"",0.355726872246696,0.13105726872246695],[""9"",-0.009911894273127754,0.2753303964757709],[""4"",-0.23898678414096916,0.13325991189427314],[""4"",-0.30286343612334804,0.13105726872246695],[""4"",-0.30947136563876654,0.1299559471365639],[""9"",-0.22577092511013216,0.15638766519823788],[""9"",-0.23127753303964757,0.1299559471365639],[""9"",-0.22356828193832598,0.1288546255506608],[""10"",0.1211453744493392,0.31387665198237885],[""10"",-0.07488986784140969,0.28744493392070486],[""10"",-0.09691629955947137,0.28634361233480177],[""5"",-0.11123348017621146,0.14317180616740088],[""5"",-0.0947136563876652,0.1354625550660793],[""1"",-0.013215859030837005,0.13876651982378854],[""1"",-0.003303964757709251,0.13876651982378854],[""10"",-0.14757709251101322,0.21365638766519823],[""10"",-0.16519823788546256,0.12555066079295155],[""10"",-0.15969162995594713,0.13876651982378854]]","[[""E"",""I""],[""E"",""H""],[""F"",""H""],[""F"",""E""],[""B"",""E""],[""B"",""F""],[""G"",""E""],[""G"",""H""],[""G"",""I""],[""C"",""H""],[""C"",""I""],[""C"",""G""],[""J"",""H""],[""J"",""I""],[""J"",""C""],[""J"",""G""],[""D"",""H""],[""D"",""E""],[""D"",""B""],[""D"",""F""],[""A"",""E""],[""A"",""B""],[""A"",""D""]]",23,0.516,160.711,0,5,5,5,1,,,,,,,,,,,,
,,,,,,,,,,,,,,,,,,,,,,,,,,,,,,,,,,,,,,,,,,,,,,,,,,,,,,,,,,,,jl03,001,2021-10-11_15h59.19.109,seq_teaching_exp,2021.2.3,Win32,59.88023952,,,,,,,,,,,,,,,,,,,,,,,,,,,,,,,,,,,,,,,,,,,,,,,,,,,,,,,,,,,,,,,,,,,,,,,,,,,,,,,,,,,,,,,,,,,,None,0.011013216,-0.341409692,1,0,0,24.929,0.053964758,-0.122246696,1,0,0
