background_mouse.x,background_mouse.y,background_mouse.leftButton,background_mouse.midButton,background_mouse.rightButton,demographic_age,demographic_education,demographic_gender,background.tEnd,intro_mouse.x,intro_mouse.y,intro_mouse.leftButton,intro_mouse.midButton,intro_mouse.rightButton,intro.tEnd,hint_mouse.x,hint_mouse.y,hint_mouse.leftButton,hint_mouse.midButton,hint_mouse.rightButton,hint.tEnd,merge_intro_mouse.x,merge_intro_mouse.y,merge_intro_mouse.leftButton,merge_intro_mouse.midButton,merge_intro_mouse.rightButton,merge_intro.tEnd,merge_train_scale_right.text,merge_train_scale_left.text,merge_train_mouse.x,merge_train_mouse.y,merge_train_mouse.leftButton,merge_train_mouse.midButton,merge_train_mouse.rightButton,merge_train_mouse.clicked_name,merge_train.tStart,mc_order,merge_train_compareN,merge_train_labels,merge_train_input,merge_train_compare_records,merge_train_mouse_clicked,merge_train.tEnd,merge_expl_mouse.x,merge_expl_mouse.y,merge_expl_mouse.leftButton,merge_expl_mouse.midButton,merge_expl_mouse.rightButton,merge_expl.tStart,merge_expl.tEnd,TRAIN_1.thisRepN,TRAIN_1.thisTrialN,TRAIN_1.thisN,TRAIN_1.thisIndex,TRAIN_1.ran,img_path,input,encryption,mc_path_1,mc_path_2,participant,session,date,expName,psychopyVersion,OS,frameRate,merge_test_intro_mouse.x,merge_test_intro_mouse.y,merge_test_intro_mouse.leftButton,merge_test_intro_mouse.midButton,merge_test_intro_mouse.rightButton,merge_test_intro.tEnd,merge_test_scale_right.text,merge_test_scale_left.text,merge_test_res.text,merge_test_mouse.x,merge_test_mouse.y,merge_test_mouse.leftButton,merge_test_mouse.midButton,merge_test_mouse.rightButton,merge_test_input,merge_test_labels,merge_test_compareN,merge_test_compare_records,merge_test.tStart,merge_test.tEnd,TEST_1.thisRepN,TEST_1.thisTrialN,TEST_1.thisN,TEST_1.thisIndex,TEST_1.ran,sort_intro_mouse.x,sort_intro_mouse.y,sort_intro_mouse.leftButton,sort_intro_mouse.midButton,sort_intro_mouse.rightButton,sort_intro.tEnd,sort_train_scale_right.text,sort_train_scale_left.text,sort_train_res.text,sort_train_mouse.x,sort_train_mouse.y,sort_train_mouse.leftButton,sort_train_mouse.midButton,sort_train_mouse.rightButton,sort_train_input,sort_train_labels,sort_train_trace,sort_train_compareN,sort_train.tStart,sort_train.tEnd,sort_train_compare_records,sort_expl_scale_right.text,sort_expl_scale_left.text,sort_expl_mouse.x,sort_expl_mouse.y,sort_expl_mouse.leftButton,sort_expl_mouse.midButton,sort_expl_mouse.rightButton,sort_expl_trace,sort_expl_compareN,sort_expl_compare_records,sort_expl.tStart,sort_expl.tEnd,TRAIN_2.thisRepN,TRAIN_2.thisTrialN,TRAIN_2.thisN,TRAIN_2.thisIndex,TRAIN_2.ran,img_path_base,ms_compare,sort_test_intro_mouse.x,sort_test_intro_mouse.y,sort_test_intro_mouse.leftButton,sort_test_intro_mouse.midButton,sort_test_intro_mouse.rightButton,sort_test_intro.tEnd,sort_test_scale_right.text,sort_test_scale_left.text,sort_test_res.text,sort_test_mouse.x,sort_test_mouse.y,sort_test_mouse.leftButton,sort_test_mouse.midButton,sort_test_mouse.rightButton,sort_test_input,sort_test_labels,sort_test_trace,sort_test_compare_records,sort_test_compareN,sort_test.tStart,sort_test.tEnd,TEST_2.thisRepN,TEST_2.thisTrialN,TEST_2.thisN,TEST_2.thisIndex,TEST_2.ran,exp_check_res.text,exp_check_mouse.x,exp_check_mouse.y,exp_check_mouse.leftButton,exp_check_mouse.midButton,exp_check_mouse.rightButton,exp_check.tEnd,debrief_mouse.x,debrief_mouse.y,debrief_mouse.leftButton,debrief_mouse.midButton,debrief_mouse.rightButton
-0.012037037,-0.380555556,1,0,0,_18_24,college,male,4.6579,-0.018518519,-0.387037037,1,0,0,7.7801,-0.041666667,-0.387962963,1,0,0,18.8794,-0.016666667,-0.403703704,1,0,0,39.4273,B,A,0.465740741,-0.406481481,1,0,0,merge_train_btn_2,0.5027,"[0,1]",1,"[""'A'"",""'B'""]","[""4"",""2""]","[[""A"",""B""]]","[""merge_train_btn_2""]",40.7804,0.30462963,-0.437962963,1,0,0,0.5082,14.623,0,0,0,0,1,materials/merge_sort/imgs/merge_train/merge_train_ex_1.png,,,materials/merge_sort/imgs/merge_train/merge_train_ex_1_1_correct.png,materials/merge_sort/imgs/merge_train/merge_train_ex_1_1_wrong.png,jl04,001,2021-10-11_09h38.53.249,seq_teaching_exp,2021.2.3,Win32,59.70149254,,,,,,,,,,,,,,,,,,,,,,,,,,,,,,,,,,,,,,,,,,,,,,,,,,,,,,,,,,,,,,,,,,,,,,,,,,,,,,,,,,,,,,,,,,,,,,,,,,,,,,,
,,,,,,,,,,,,,,,,,,,,,,,,,,,A,D,0.430555556,-0.42962963,1,0,0,merge_train_btn_2,0.5046,"[1,0]",4,"[""'A'"",""'B'"",""'D'"",""'C'""]","[""1"",""4"",""2"",""3""]","[[""D"",""C""],[""A"",""D""],[""A"",""B""],[""D"",""A""]]","[""merge_train_btn_2""]",46.7988,0.343518519,-0.418518519,1,0,0,0.5144,6.8301,0,1,1,1,1,materials/merge_sort/imgs/merge_train/merge_train_ex_2.png,,,materials/merge_sort/imgs/merge_train/merge_train_ex_2_1_correct.png,materials/merge_sort/imgs/merge_train/merge_train_ex_2_1_wrong.png,jl04,001,2021-10-11_09h38.53.249,seq_teaching_exp,2021.2.3,Win32,59.70149254,,,,,,,,,,,,,,,,,,,,,,,,,,,,,,,,,,,,,,,,,,,,,,,,,,,,,,,,,,,,,,,,,,,,,,,,,,,,,,,,,,,,,,,,,,,,,,,,,,,,,,,
,,,,,,,,,,,,,,,,,,,,,,,,,,,B,C,0.462037037,-0.425925926,1,0,0,merge_train_btn_2,0.507,"[1,0]",3,"[""'A'"",""'B'"",""'D'"",""'C'""]","[""1"",""4"",""2"",""3""]","[[""A"",""B""],[""D"",""B""],[""C"",""B""]]","[""merge_train_btn_2""]",43.8842,0.358333333,-0.413888889,1,0,0,0.5151,8.6305,0,2,2,2,1,materials/merge_sort/imgs/merge_train/merge_train_ex_2.png,,,materials/merge_sort/imgs/merge_train/merge_train_ex_2_2_correct.png,materials/merge_sort/imgs/merge_train/merge_train_ex_2_2_wrong.png,jl04,001,2021-10-11_09h38.53.249,seq_teaching_exp,2021.2.3,Win32,59.70149254,,,,,,,,,,,,,,,,,,,,,,,,,,,,,,,,,,,,,,,,,,,,,,,,,,,,,,,,,,,,,,,,,,,,,,,,,,,,,,,,,,,,,,,,,,,,,,,,,,,,,,,
,,,,,,,,,,,,,,,,,,,,,,,,,,,E,G,0.45462963,-0.263888889,1,0,0,merge_train_btn_1,0.5057,"[1,0]",5,"[""'C'"",""'D'"",""'B'"",""'A'"",""'G'"",""'E'"",""'F'""]","[""1"",""2"",""5"",""7"",""3"",""4"",""6""]","[[""G"",""B""],[""G"",""E""],[""G"",""E""],[""G"",""B""],[""G"",""E""]]","[""merge_train_btn_1""]",48.7663,0.340740741,-0.412037037,1,0,0,0.5151,23.4951,0,3,3,3,1,materials/merge_sort/imgs/merge_train/merge_train_ex_5.png,,,materials/merge_sort/imgs/merge_train/merge_train_ex_5_1_correct.png,materials/merge_sort/imgs/merge_train/merge_train_ex_5_1_wrong.png,jl04,001,2021-10-11_09h38.53.249,seq_teaching_exp,2021.2.3,Win32,59.70149254,,,,,,,,,,,,,,,,,,,,,,,,,,,,,,,,,,,,,,,,,,,,,,,,,,,,,,,,,,,,,,,,,,,,,,,,,,,,,,,,,,,,,,,,,,,,,,,,,,,,,,,
,,,,,,,,,,,,,,,,,,,,,,,,,,,F,B,0.447222222,-0.42962963,1,0,0,merge_train_btn_2,0.5091,"[0,1]",3,"[""'C'"",""'D'"",""'B'"",""'A'"",""'G'"",""'E'"",""'F'""]","[""1"",""2"",""5"",""7"",""3"",""4"",""6""]","[[""E"",""B""],[""E"",""F""],[""B"",""F""]]","[""merge_train_btn_2""]",38.1705,0.339814815,-0.427777778,1,0,0,0.5144,10.2632,0,4,4,4,1,materials/merge_sort/imgs/merge_train/merge_train_ex_5.png,,,materials/merge_sort/imgs/merge_train/merge_train_ex_5_2_correct.png,materials/merge_sort/imgs/merge_train/merge_train_ex_5_2_wrong.png,jl04,001,2021-10-11_09h38.53.249,seq_teaching_exp,2021.2.3,Win32,59.70149254,,,,,,,,,,,,,,,,,,,,,,,,,,,,,,,,,,,,,,,,,,,,,,,,,,,,,,,,,,,,,,,,,,,,,,,,,,,,,,,,,,,,,,,,,,,,,,,,,,,,,,,
,,,,,,,,,,,,,,,,,,,,,,,,,,,F,A,0.450925926,-0.396296296,1,0,0,merge_train_btn_2,0.5053,"[0,1]",1,"[""'C'"",""'D'"",""'B'"",""'A'"",""'G'"",""'E'"",""'F'""]","[""1"",""2"",""5"",""7"",""3"",""4"",""6""]","[[""A"",""F""]]","[""merge_train_btn_2""]",23.3689,0.37037037,-0.414814815,1,0,0,0.516,5.0485,0,5,5,5,1,materials/merge_sort/imgs/merge_train/merge_train_ex_5.png,,,materials/merge_sort/imgs/merge_train/merge_train_ex_5_3_correct.png,materials/merge_sort/imgs/merge_train/merge_train_ex_5_3_wrong.png,jl04,001,2021-10-11_09h38.53.249,seq_teaching_exp,2021.2.3,Win32,59.70149254,,,,,,,,,,,,,,,,,,,,,,,,,,,,,,,,,,,,,,,,,,,,,,,,,,,,,,,,,,,,,,,,,,,,,,,,,,,,,,,,,,,,,,,,,,,,,,,,,,,,,,,
,,,,,,,,,,,,,,,,,,,,,,,,,,,,,,,,,,,,,,,,,,,,,,,,,,,,,,,materials/merge_sort/imgs/merge_test/merge_test_ex_1.png,,,,,jl04,001,2021-10-11_09h38.53.249,seq_teaching_exp,2021.2.3,Win32,59.70149254,0.002777778,-0.386111111,1,0,0,15.2713,E,B,"C,A,D,E,B",0.465740741,-0.361111111,1,0,0,"[""1"",""2"",""5"",""3"",""4""]","[""'C'"",""'A'"",""'B'"",""'D'"",""'E'""]",4,"[[""C"",""D""],[""A"",""D""],[""B"",""D""],[""B"",""E""]]",0.5036,60.7624,0,0,0,0,1,,,,,,,,,,,,,,,,,,,,,,,,,,,,,,,,,,,,,,,,,,,,,,,,,,,,,,,,,,,,,,,,,,,,,,,,,,,,,,
,,,,,,,,,,,,,,,,,,,,,,,,,,,,,,,,,,,,,,,,,,,,,,,,,,,,,,,materials/merge_sort/imgs/merge_test/merge_test_ex_2.png,,,,,jl04,001,2021-10-11_09h38.53.249,seq_teaching_exp,2021.2.3,Win32,59.70149254,,,,,,,C,B,"D,E,B,A,C",0.457407407,-0.349074074,1,0,0,"[""3"",""4"",""5"",""1"",""2""]","[""'B'"",""'A'"",""'C'"",""'D'"",""'E'""]",3,"[[""B"",""D""],[""B"",""E""],[""B"",""C""]]",0.5067,41.6012,0,1,1,1,1,,,,,,,,,,,,,,,,,,,,,,,,,,,,,,,,,,,,,,,,,,,,,,,,,,,,,,,,,,,,,,,,,,,,,,,,,,,,,,
,,,,,,,,,,,,,,,,,,,,,,,,,,,,,,,,,,,,,,,,,,,,,,,,,,,,,,,materials/merge_sort/imgs/merge_test/merge_test_ex_3.png,,,,,jl04,001,2021-10-11_09h38.53.249,seq_teaching_exp,2021.2.3,Win32,59.70149254,,,,,,,E,C,"F,D,A,E,C,B",0.435185185,-0.368518519,1,0,0,"[""3"",""5"",""6"",""1"",""2"",""4""]","[""'A'"",""'C'"",""'B'"",""'F'"",""'D'"",""'E'""]",7,"[[""A"",""F""],[""A"",""D""],[""A"",""F""],[""A"",""E""],[""C"",""E""],[""B"",""E""],[""C"",""E""]]",0.5062,79.629,0,2,2,2,1,,,,,,,,,,,,,,,,,,,,,,,,,,,,,,,,,,,,,,,,,,,,,,,,,,,,,,,,,,,,,,,,,,,,,,,,,,,,,,
,,,,,,,,,,,,,,,,,,,,,,,,,,,,,,,,,,,,,,,,,,,,,,,,,,,,,,,materials/merge_sort/imgs/merge_test/merge_test_ex_4.png,,,,,jl04,001,2021-10-11_09h38.53.249,seq_teaching_exp,2021.2.3,Win32,59.70149254,,,,,,,F,A,"E,D,B,G,C,F,A",0.446296296,-0.331481481,1,0,0,"[""2"",""3"",""5"",""7"",""1"",""4"",""6""]","[""'D'"",""'B'"",""'C'"",""'A'"",""'E'"",""'G'"",""'F'""]",6,"[[""D"",""E""],[""D"",""G""],[""B"",""G""],[""C"",""G""],[""C"",""F""],[""A"",""F""]]",0.5066,74.4969,0,3,3,3,1,,,,,,,,,,,,,,,,,,,,,,,,,,,,,,,,,,,,,,,,,,,,,,,,,,,,,,,,,,,,,,,,,,,,,,,,,,,,,,
,,,,,,,,,,,,,,,,,,,,,,,,,,,,,,,,,,,,,,,,,,,,,,,,,,,,,,,materials/merge_sort/imgs/merge_test/merge_test_ex_5.png,,,,,jl04,001,2021-10-11_09h38.53.249,seq_teaching_exp,2021.2.3,Win32,59.70149254,,,,,,,F,D,"C,E,G,A,B,D,F",0.456481481,-0.337962963,1,0,0,"[""1"",""4"",""5"",""6"",""2"",""3"",""7""]","[""'C'"",""'A'"",""'B'"",""'D'"",""'E'"",""'G'"",""'F'""]",7,"[[""C"",""E""],[""A"",""E""],[""A"",""G""],[""A"",""E""],[""A"",""F""],[""B"",""F""],[""D"",""F""]]",0.5046,65.2793,0,4,4,4,1,,,,,,,,,,,,,,,,,,,,,,,,,,,,,,,,,,,,,,,,,,,,,,,,,,,,,,,,,,,,,,,,,,,,,,,,,,,,,,
,,,,,,,,,,,,,,,,,,,,,,,,,,,,,,,,,,,,,,,,,,,,,,,,,,,,,,,,,,,,jl04,001,2021-10-11_09h38.53.249,seq_teaching_exp,2021.2.3,Win32,59.70149254,,,,,,,,,,,,,,,,,,,,,,,,,,0.038888889,-0.383333333,1,0,0,22.5716,E,F,"E,F,C,D,A,B",0.519444444,-0.343518519,1,0,0,"[""5"",""4"",""6"",""3"",""1"",""2""]","[""'A'"",""'D'"",""'B'"",""'C'"",""'E'"",""'F'""]","[[""1"",-0.25555555555555554,0.29907407407407405],[""1"",-0.26944444444444443,0.2490740740740741],[""1"",-0.2722222222222222,0.262037037037037],[""1"",-0.2814814814814815,0.31574074074074077],[""1"",-0.2814814814814815,0.32407407407407407],[""1"",-0.2638888888888889,0.3074074074074074],[""1"",-0.2601851851851852,0.30092592592592593],[""1"",-0.3,0.25555555555555554],[""1"",-0.3287037037037037,0.23055555555555557],[""2"",-0.20092592592592592,0.29074074074074074],[""2"",-0.2814814814814815,0.23703703703703705],[""2"",-0.28703703703703703,0.22962962962962963],[""2"",-0.28703703703703703,0.2324074074074074],[""2"",-0.2861111111111111,0.23333333333333334],[""1"",-0.25092592592592594,0.19074074074074074],[""1"",-0.25,0.22870370370370371],[""1"",-0.25092592592592594,0.24074074074074073],[""1"",-0.2462962962962963,0.23981481481481481],[""1"",-0.24351851851851852,0.2361111111111111],[""1"",-0.24351851851851852,0.23425925925925925],[""3"",-0.1361111111111111,0.2824074074074074],[""3"",-0.10277777777777777,0.17222222222222222],[""3"",-0.15925925925925927,0.2351851851851852],[""3"",-0.1712962962962963,0.24351851851851852],[""3"",-0.18981481481481483,0.24074074074074073],[""3"",-0.1935185185185185,0.2351851851851852],[""3"",-0.19444444444444445,0.23333333333333334],[""3"",-0.19722222222222222,0.23333333333333334],[""3"",-0.09259259259259259,0.22870370370370371],[""3"",-0.08425925925925926,0.22777777777777777],[""4"",-0.10925925925925926,0.3111111111111111],[""4"",-0.15925925925925927,0.24166666666666667],[""4"",-0.17314814814814813,0.22962962962962963],[""1"",-0.13796296296296295,0.2222222222222222],[""1"",-0.1287037037037037,0.23425925925925925],[""4"",-0.21944444444444444,0.2064814814814815],[""4"",-0.3296296296296296,0.23333333333333334],[""4"",-0.33055555555555555,0.2518518518518518],[""2"",-0.23981481481481481,0.23981481481481481],[""2"",-0.27037037037037037,0.2564814814814815],[""1"",-0.2,0.25462962962962965],[""1"",-0.21296296296296297,0.25833333333333336],[""3"",-0.1574074074074074,0.25925925925925924],[""3"",-0.16203703703703703,0.2611111111111111],[""3"",-0.08703703703703704,0.25092592592592594],[""3"",-0.08703703703703704,0.2518518518518518],[""5"",-0.11574074074074074,0.287962962962963],[""5"",-0.14537037037037037,0.25833333333333336],[""5"",-0.15092592592592594,0.25],[""1"",-0.12407407407407407,0.21666666666666667],[""1"",-0.13148148148148148,0.25462962962962965],[""1"",-0.12314814814814815,0.2574074074074074],[""1"",-0.12037037037037036,0.25555555555555554],[""5"",-0.22314814814814815,0.25555555555555554],[""5"",-0.32037037037037036,0.28425925925925927],[""5"",-0.29074074074074074,0.2574074074074074],[""5"",-0.2935185185185185,0.25925925925925924],[""5"",-0.29907407407407405,0.25925925925925924],[""5"",-0.29907407407407405,0.25462962962962965],[""5"",-0.3333333333333333,0.2537037037037037],[""5"",-0.35648148148148145,0.2611111111111111],[""5"",-0.3611111111111111,0.25555555555555554],[""5"",-0.36574074074074076,0.25092592592592594],[""1"",-0.13425925925925927,0.2601851851851852],[""1"",-0.21481481481481482,0.2564814814814815],[""3"",-0.08888888888888889,0.2574074074074074],[""3"",-0.12777777777777777,0.2564814814814815],[""6"",-0.15555555555555556,0.25833333333333336],[""6"",-0.18518518518518517,0.25092592592592594],[""6"",-0.19722222222222222,0.2490740740740741],[""6"",-0.32685185185185184,0.2490740740740741],[""6"",-0.34814814814814815,0.2574074074074074],[""4"",-0.30925925925925923,0.2601851851851852],[""5"",-0.3574074074074074,0.26666666666666666],[""5"",-0.34074074074074073,0.26296296296296295],[""5"",-0.337037037037037,0.26296296296296295],[""5"",-0.3611111111111111,0.26666666666666666],[""5"",-0.3638888888888889,0.2638888888888889],[""5"",-0.3648148148148148,0.2638888888888889],[""5"",-0.3731481481481482,0.2638888888888889],[""5"",-0.37592592592592594,0.2638888888888889]]",16,0.5048,222.2928,"[[""A"",""D""],[""B"",""D""],[""B"",""A""],[""B"",""C""],[""B"",""A""],[""C"",""A""],[""C"",""D""],[""B"",""E""],[""B"",""A""],[""E"",""A""],[""E"",""D""],[""E"",""C""],[""B"",""F""],[""F"",""A""],[""F"",""C""],[""F"",""E""]]",,,0.465740741,-0.344444444,1,0,0,[],0,[],0.5057,6.2303,0,0,0,0,1,materials/merge_sort/imgs/fruits/apple,8,,,,,,,,,,,,,,,,,,,,,,,,,,,,,,,,,,,,,,
,,,,,,,,,,,,,,,,,,,,,,,,,,,,,,,,,,,,,,,,,,,,,,,,,,,,,,,,,,,,jl04,001,2021-10-11_09h38.53.249,seq_teaching_exp,2021.2.3,Win32,59.70149254,,,,,,,,,,,,,,,,,,,,,,,,,,,,,,,,B,G,"G,B,F,E,A,C,D",0.517592593,-0.343518519,1,0,0,"[""6"",""2"",""4"",""7"",""5"",""3"",""1""]","[""'C'"",""'B'"",""'E'"",""'D'"",""'A'"",""'F'"",""'G'""]","[[""2"",-0.262037037037037,0.2],[""2"",-0.325,0.19166666666666668],[""1"",-0.22777777777777777,0.22777777777777777],[""1"",-0.24722222222222223,0.17592592592592593],[""1"",-0.27037037037037037,0.18981481481481483],[""1"",-0.27037037037037037,0.1925925925925926],[""3"",-0.14537037037037037,0.3],[""3"",-0.15555555555555556,0.30277777777777776],[""3"",-0.3194444444444444,0.20277777777777778],[""3"",-0.30277777777777776,0.19537037037037036],[""3"",-0.30092592592592593,0.19537037037037036],[""2"",-0.3509259259259259,0.19722222222222222],[""2"",-0.3509259259259259,0.19074074074074074],[""1"",-0.1925925925925926,0.18055555555555555],[""1"",-0.18796296296296297,0.1925925925925926],[""1"",-0.18055555555555555,0.20092592592592592],[""1"",-0.1648148148148148,0.1962962962962963],[""3"",-0.26296296296296295,0.19074074074074074],[""3"",-0.24074074074074073,0.18611111111111112],[""3"",-0.2564814814814815,0.19537037037037036],[""4"",-0.08148148148148149,0.22407407407407406],[""4"",-0.06388888888888888,0.19166666666666668],[""4"",-0.06759259259259259,0.20092592592592592],[""5"",-0.05092592592592592,0.2898148148148148],[""5"",-0.20925925925925926,0.26666666666666666],[""5"",-0.2175925925925926,0.2740740740740741],[""5"",-0.20833333333333334,0.275],[""5"",-0.3148148148148148,0.29444444444444445],[""5"",-0.3101851851851852,0.2861111111111111],[""5"",-0.30925925925925923,0.28055555555555556],[""5"",-0.30833333333333335,0.28055555555555556],[""5"",-0.3074074074074074,0.27870370370370373],[""5"",-0.30648148148148147,0.27870370370370373],[""5"",-0.287962962962963,0.2916666666666667],[""5"",-0.18518518518518517,0.2222222222222222],[""5"",-0.19814814814814816,0.18425925925925926],[""5"",-0.21296296296296297,0.19166666666666668],[""5"",-0.21296296296296297,0.19722222222222222],[""6"",-0.11018518518518519,0.3138888888888889],[""6"",-0.11851851851851852,0.30648148148148147],[""6"",-0.2935185185185185,0.2722222222222222],[""6"",-0.325,0.26666666666666666],[""6"",-0.2962962962962963,0.2601851851851852],[""6"",-0.2953703703703704,0.2601851851851852],[""6"",-0.287962962962963,0.19444444444444445],[""6"",-0.28888888888888886,0.18611111111111112],[""6"",-0.2953703703703704,0.19814814814814816],[""7"",-0.13055555555555556,0.30462962962962964],[""7"",-0.27037037037037037,0.29814814814814816],[""7"",-0.2712962962962963,0.29814814814814816],[""7"",-0.3611111111111111,0.262037037037037],[""7"",-0.3814814814814815,0.21296296296296297],[""7"",-0.3851851851851852,0.2],[""7"",-0.3851851851851852,0.19537037037037036]]",12,0.5052,133.3214,"[[""C"",""B""],[""C"",""E""],[""B"",""E""],[""D"",""E""],[""D"",""C""],[""A"",""C""],[""A"",""B""],[""A"",""E""],[""F"",""E""],[""F"",""B""],[""G"",""E""],[""G"",""B""]]",,,0.507407407,-0.361111111,1,0,0,"[[""4"",-0.058333333333333334,0.2064814814814815],[""4"",-0.07777777777777778,0.19907407407407407],[""4"",-0.0824074074074074,0.19722222222222222]]",0,[],0.5157,7.3476,0,1,1,1,1,materials/merge_sort/imgs/fruits/banana,12,,,,,,,,,,,,,,,,,,,,,,,,,,,,,,,,,,,,,,
,,,,,,,,,,,,,,,,,,,,,,,,,,,,,,,,,,,,,,,,,,,,,,,,,,,,,,,,,,,,jl04,001,2021-10-11_09h38.53.249,seq_teaching_exp,2021.2.3,Win32,59.70149254,,,,,,,,,,,,,,,,,,,,,,,,,,,,,,,,H,C,"C,H,D,F,E,A,B,G",0.464814815,-0.356481481,1,0,0,"[""7"",""6"",""5"",""8"",""4"",""3"",""2"",""1""]","[""'B'"",""'A'"",""'E'"",""'G'"",""'F'"",""'D'"",""'H'"",""'C'""]","[[""1"",-0.2074074074074074,0.2074074074074074],[""1"",-0.19722222222222222,0.18611111111111112],[""2"",-0.24351851851851852,0.21481481481481482],[""2"",-0.2796296296296296,0.19444444444444445],[""2"",-0.2935185185185185,0.1824074074074074],[""2"",-0.2953703703703704,0.1814814814814815],[""2"",-0.3194444444444444,0.1824074074074074],[""2"",-0.32037037037037036,0.1824074074074074],[""3"",-0.14907407407407408,0.3212962962962963],[""3"",-0.27685185185185185,0.2601851851851852],[""3"",-0.27685185185185185,0.25925925925925924],[""2"",-0.24537037037037038,0.19074074074074074],[""2"",-0.24074074074074073,0.18981481481481483],[""3"",-0.28055555555555556,0.19814814814814816],[""3"",-0.2953703703703704,0.1962962962962963],[""3"",-0.32685185185185184,0.1962962962962963],[""3"",-0.34074074074074073,0.18703703703703703],[""2"",-0.2601851851851852,0.1787037037037037],[""2"",-0.2712962962962963,0.18981481481481483],[""4"",-0.10648148148148148,0.30462962962962964],[""4"",-0.20925925925925926,0.22962962962962963],[""4"",-0.2175925925925926,0.20833333333333334],[""4"",-0.17314814814814813,0.25462962962962965],[""4"",-0.14444444444444443,0.2675925925925926],[""4"",-0.1527777777777778,0.2638888888888889],[""4"",-0.1425925925925926,0.26666666666666666],[""4"",-0.09351851851851851,0.2490740740740741],[""4"",-0.08333333333333333,0.2111111111111111],[""4"",-0.08703703703703704,0.19537037037037036],[""4"",-0.09351851851851851,0.19722222222222222],[""5"",-0.07777777777777778,0.3111111111111111],[""5"",-0.21574074074074073,0.29074074074074074],[""5"",-0.262037037037037,0.2657407407407407],[""5"",-0.3972222222222222,0.22314814814814815],[""5"",-0.3814814814814815,0.1962962962962963],[""5"",-0.3824074074074074,0.1962962962962963],[""3"",-0.31574074074074077,0.19814814814814816],[""3"",-0.325,0.20185185185185187],[""3"",-0.3296296296296296,0.20185185185185187],[""4"",-0.03333333333333333,0.2101851851851852],[""1"",-0.10277777777777777,0.1935185185185185],[""1"",-0.1037037037037037,0.1935185185185185],[""2"",-0.2601851851851852,0.19907407407407407],[""2"",-0.2074074074074074,0.19907407407407407],[""3"",-0.30462962962962964,0.20833333333333334],[""3"",-0.26944444444444443,0.2074074074074074],[""5"",-0.2777777777777778,0.20185185185185187],[""5"",-0.32037037037037036,0.21388888888888888],[""6"",-0.10277777777777777,0.26944444444444443],[""3"",-0.3490740740740741,0.20833333333333334],[""6"",-0.15555555555555556,0.2601851851851852],[""3"",-0.3611111111111111,0.2074074074074074],[""3"",-0.36203703703703705,0.21296296296296297],[""3"",-0.36018518518518516,0.2101851851851852],[""3"",-0.2824074074074074,0.20925925925925926],[""3"",-0.26481481481481484,0.2111111111111111],[""6"",-0.15,0.2601851851851852],[""5"",-0.34814814814814815,0.2388888888888889],[""6"",-0.22592592592592592,0.2601851851851852],[""5"",-0.35555555555555557,0.21666666666666667],[""5"",-0.31203703703703706,0.21851851851851853],[""5"",-0.22314814814814815,0.21851851851851853],[""5"",-0.19537037037037036,0.21851851851851853],[""5"",-0.18518518518518517,0.2175925925925926],[""5"",-0.2777777777777778,0.21851851851851853],[""5"",-0.3296296296296296,0.21851851851851853],[""5"",-0.33240740740740743,0.22407407407407406],[""5"",-0.3101851851851852,0.21851851851851853],[""5"",-0.29907407407407405,0.21666666666666667],[""6"",-0.27685185185185185,0.2953703703703704],[""6"",-0.33796296296296297,0.27314814814814814],[""6"",-0.3398148148148148,0.21851851851851853],[""6"",-0.3351851851851852,0.20555555555555555],[""6"",-0.3472222222222222,0.21574074074074073],[""7"",-0.022222222222222223,0.33240740740740743],[""7"",-0.3416666666666667,0.35555555555555557],[""7"",-0.39166666666666666,0.2916666666666667],[""7"",-0.38796296296296295,0.24259259259259258],[""7"",-0.387037037037037,0.21388888888888888],[""7"",-0.3814814814814815,0.2101851851851852],[""7"",-0.3787037037037037,0.2101851851851852],[""8"",0.09259259259259259,0.2935185185185185],[""1"",-0.1425925925925926,0.20462962962962963],[""2"",-0.22777777777777777,0.18796296296296297],[""8"",-0.03425925925925926,0.24074074074074073],[""8"",-0.017592592592592594,0.30833333333333335],[""8"",-0.049074074074074076,0.17592592592592593],[""4"",-0.05092592592592592,0.18518518518518517],[""4"",-0.053703703703703705,0.18611111111111112],[""4"",-0.019444444444444445,0.19166666666666668],[""8"",-0.10555555555555556,0.1537037037037037],[""8"",-0.1537037037037037,0.07592592592592592]]",13,0.5091,162.6542,"[[""B"",""A""],[""E"",""B""],[""E"",""A""],[""G"",""A""],[""G"",""B""],[""F"",""B""],[""F"",""E""],[""D"",""A""],[""D"",""F""],[""H"",""A""],[""H"",""D""],[""C"",""A""],[""C"",""H""]]",,,0.475,-0.352777778,1,0,0,[],0,[],0.5153,1.9653,0,2,2,2,1,materials/merge_sort/imgs/fruits/apple,13,,,,,,,,,,,,,,,,,,,,,,,,,,,,,,,,,,,,,,
,,,,,,,,,,,,,,,,,,,,,,,,,,,,,,,,,,,,,,,,,,,,,,,,,,,,,,,,,,,,jl04,001,2021-10-11_09h38.53.249,seq_teaching_exp,2021.2.3,Win32,59.70149254,,,,,,,,,,,,,,,,,,,,,,,,,,,,,,,,C,A,"D,I,J,E,A,C,B,G,F,H",0.507407407,-0.373148148,1,0,0,"[""8"",""6"",""4"",""3"",""2"",""10"",""9"",""7"",""1"",""5""]","[""'G'"",""'C'"",""'E'"",""'J'"",""'I'"",""'H'"",""'F'"",""'B'"",""'D'"",""'A'""]","[[""1"",-0.25555555555555554,0.2462962962962963],[""1"",-0.16203703703703703,0.13796296296296295],[""1"",-0.1388888888888889,0.13518518518518519],[""1"",-0.09259259259259259,0.13518518518518519],[""2"",-0.26481481481481484,0.25],[""2"",-0.34814814814814815,0.13148148148148148],[""2"",-0.32592592592592595,0.12962962962962962],[""2"",-0.26296296296296295,0.14074074074074075],[""1"",0.03425925925925926,0.1425925925925926],[""1"",0.06574074074074074,0.1425925925925926],[""2"",-0.2564814814814815,0.15092592592592594],[""2"",-0.17222222222222222,0.1398148148148148],[""2"",-0.15648148148148147,0.1388888888888889],[""2"",-0.15833333333333333,0.15185185185185185],[""2"",-0.15833333333333333,0.1527777777777778],[""3"",-0.20555555555555555,0.3055555555555556],[""3"",-0.2861111111111111,0.14907407407407408],[""3"",-0.32592592592592595,0.1425925925925926],[""3"",-0.3074074074074074,0.16111111111111112],[""3"",-0.3074074074074074,0.1527777777777778],[""4"",-0.18055555555555555,0.29444444444444445],[""4"",-0.3824074074074074,0.22314814814814815],[""4"",-0.3814814814814815,0.15462962962962962],[""4"",-0.3768518518518518,0.14351851851851852],[""3"",-0.26296296296296295,0.15092592592592594],[""3"",-0.26296296296296295,0.15185185185185185],[""2"",-0.075,0.14907407407407408],[""2"",-0.06296296296296296,0.15462962962962962],[""2"",-0.062037037037037036,0.15555555555555556],[""3"",-0.25925925925925924,0.1527777777777778],[""3"",-0.22685185185185186,0.15185185185185185],[""3"",-0.20555555555555555,0.16296296296296298],[""3"",-0.16018518518518518,0.17037037037037037],[""3"",-0.1574074074074074,0.15925925925925927],[""3"",-0.1574074074074074,0.1574074074074074],[""4"",-0.3416666666666667,0.15],[""4"",-0.3416666666666667,0.15925925925925927],[""4"",-0.2361111111111111,0.17222222222222222],[""4"",-0.22685185185185186,0.1648148148148148],[""4"",-0.22962962962962963,0.1574074074074074],[""5"",-0.10185185185185185,0.2898148148148148],[""5"",-0.2861111111111111,0.20277777777777778],[""5"",-0.28425925925925927,0.1787037037037037],[""5"",-0.2833333333333333,0.15925925925925927],[""5"",-0.2916666666666667,0.15833333333333333],[""5"",-0.2916666666666667,0.15925925925925927],[""6"",-0.018518518518518517,0.2574074074074074],[""6"",0.12314814814814815,0.18333333333333332],[""6"",0.1527777777777778,0.16574074074074074],[""6"",0.15,0.15925925925925927],[""1"",0.06018518518518518,0.1537037037037037],[""1"",0.03425925925925926,0.16574074074074074],[""1"",0.018518518518518517,0.1638888888888889],[""6"",0.13240740740740742,0.16296296296296298],[""6"",0.09907407407407408,0.1638888888888889],[""6"",0.08981481481481482,0.1638888888888889],[""6"",0.1111111111111111,0.15555555555555556],[""6"",0.14814814814814814,0.16018518518518518],[""6"",0.16296296296296298,0.17037037037037037],[""6"",0.16296296296296298,0.1712962962962963],[""7"",0.05462962962962963,0.2824074074074074],[""7"",0.08703703703703704,0.2064814814814815],[""7"",0.08888888888888889,0.175],[""7"",0.08425925925925926,0.1638888888888889],[""6"",0.14351851851851852,0.15185185185185185],[""6"",0.14351851851851852,0.1574074074074074],[""8"",0.05092592592592592,0.24074074074074073],[""8"",-0.026851851851851852,0.16018518518518518],[""8"",-0.023148148148148147,0.16203703703703703],[""8"",-0.021296296296296296,0.16203703703703703],[""2"",-0.07962962962962963,0.16666666666666666],[""2"",-0.08518518518518518,0.16574074074074074],[""8"",-0.03888888888888889,0.15925925925925927],[""8"",-0.03518518518518519,0.1648148148148148],[""8"",-0.03518518518518519,0.16574074074074074],[""9"",-0.1527777777777778,0.24351851851851852],[""9"",-0.3194444444444444,0.18518518518518517],[""9"",-0.32314814814814813,0.18518518518518517],[""9"",-0.3351851851851852,0.175],[""9"",-0.34814814814814815,0.1675925925925926],[""9"",-0.35185185185185186,0.16018518518518518],[""9"",-0.3527777777777778,0.16203703703703703],[""10"",0.07314814814814814,0.26666666666666666],[""10"",0.004629629629629629,0.24259259259259258],[""3"",-0.11203703703703703,0.17777777777777778],[""3"",-0.1287037037037037,0.19722222222222222],[""3"",-0.17777777777777778,0.18333333333333332],[""3"",-0.1824074074074074,0.17037037037037037],[""10"",-0.003703703703703704,0.24351851851851852],[""10"",-0.08796296296296297,0.24259259259259258],[""10"",-0.12222222222222222,0.18425925925925926],[""10"",-0.12407407407407407,0.17222222222222222],[""10"",-0.125,0.17222222222222222]]",20,0.5132,200.7206,"[[""G"",""C""],[""E"",""C""],[""J"",""C""],[""J"",""E""],[""I"",""G""],[""I"",""J""],[""H"",""G""],[""F"",""G""],[""F"",""H""],[""B"",""H""],[""B"",""G""],[""B"",""E""],[""B"",""C""],[""D"",""C""],[""D"",""J""],[""D"",""I""],[""A"",""I""],[""A"",""E""],[""A"",""B""],[""A"",""C""]]",,,0.531481481,-0.356481481,1,0,0,[],0,[],0.5238,2.7313,0,3,3,3,1,materials/merge_sort/imgs/fruits/melon,21,,,,,,,,,,,,,,,,,,,,,,,,,,,,,,,,,,,,,,
,,,,,,,,,,,,,,,,,,,,,,,,,,,,,,,,,,,,,,,,,,,,,,,,,,,,,,,,,,,,jl04,001,2021-10-11_09h38.53.249,seq_teaching_exp,2021.2.3,Win32,59.70149254,,,,,,,,,,,,,,,,,,,,,,,,,,,,,,,,,,,,,,,,,,,,,,,,,,,,,,,,,,,,,,,,materials/merge_sort/imgs/fruits/melon,,0.016666667,-0.398148148,1,0,0,22.2287,D,F,"D,F,B,A,C,E",0.453703704,-0.362962963,1,0,0,"[""6"",""3"",""5"",""4"",""2"",""1""]","[""'E'"",""'B'"",""'C'"",""'A'"",""'F'"",""'D'""]","[[""1"",-0.26296296296296295,0.2657407407407407],[""1"",-0.26851851851851855,0.2935185185185185],[""1"",-0.26851851851851855,0.30185185185185187],[""1"",-0.12962962962962962,0.19907407407407407],[""1"",-0.09907407407407408,0.1712962962962963],[""1"",-0.09074074074074075,0.15555555555555556],[""2"",-0.20277777777777778,0.3111111111111111],[""2"",-0.23425925925925925,0.1962962962962963],[""2"",-0.26296296296296295,0.16203703703703703],[""2"",-0.262037037037037,0.16296296296296298],[""3"",-0.15648148148148147,0.23425925925925925],[""3"",-0.1824074074074074,0.14814814814814814],[""3"",-0.1824074074074074,0.1685185185185185],[""4"",-0.18518518518518517,0.24351851851851852],[""4"",-0.2324074074074074,0.16666666666666666],[""4"",-0.21666666666666667,0.17962962962962964],[""4"",-0.21666666666666667,0.1787037037037037],[""2"",-0.28888888888888886,0.175],[""2"",-0.30462962962962964,0.175],[""4"",-0.2574074074074074,0.1685185185185185],[""4"",-0.2601851851851852,0.1685185185185185],[""2"",-0.29074074074074074,0.19814814814814816],[""5"",-0.11481481481481481,0.2861111111111111],[""2"",-0.3925925925925926,0.14629629629629629],[""2"",-0.32592592592592595,0.17037037037037037],[""2"",-0.3212962962962963,0.17222222222222222],[""5"",-0.10740740740740741,0.2962962962962963],[""5"",-0.2388888888888889,0.30092592592592593],[""5"",-0.37962962962962965,0.225],[""5"",-0.3861111111111111,0.17592592592592593],[""5"",-0.3787037037037037,0.17314814814814813],[""6"",-0.05277777777777778,0.31574074074074077],[""4"",-0.32314814814814813,0.06018518518518518],[""6"",-0.09166666666666666,0.30092592592592593],[""4"",-0.37407407407407406,0.07037037037037037],[""4"",-0.3675925925925926,0.07314814814814814],[""4"",-0.275,0.13796296296296295],[""4"",-0.25462962962962965,0.17592592592592593],[""4"",-0.24814814814814815,0.17962962962962964],[""6"",-0.07407407407407407,0.2962962962962963],[""6"",0.08055555555555556,0.17314814814814813],[""6"",-0.011111111111111112,0.05648148148148148]]","[[""E"",""B""],[""C"",""B""],[""C"",""E""],[""A"",""E""],[""A"",""B""],[""A"",""C""],[""F"",""C""],[""F"",""B""],[""F"",""D""],[""A"",""D""],[""E"",""D""],[""C"",""D""],[""A"",""D""],[""B"",""D""],[""F"",""D""]]",15,0.5032,128.7529,0,0,0,0,1,,,,,,,,,,,,
,,,,,,,,,,,,,,,,,,,,,,,,,,,,,,,,,,,,,,,,,,,,,,,,,,,,,,,,,,,,jl04,001,2021-10-11_09h38.53.249,seq_teaching_exp,2021.2.3,Win32,59.70149254,,,,,,,,,,,,,,,,,,,,,,,,,,,,,,,,,,,,,,,,,,,,,,,,,,,,,,,,,,,,,,,,materials/merge_sort/imgs/fruits/banana,,,,,,,,B,E,"E,B,F,A,C,D",0.469444444,-0.341666667,1,0,0,"[""4"",""6"",""5"",""2"",""3"",""1""]","[""'A'"",""'D'"",""'C'"",""'B'"",""'F'"",""'E'""]","[[""1"",-0.2574074074074074,0.2740740740740741],[""1"",-0.3277777777777778,0.14907407407407408],[""1"",-0.3277777777777778,0.15555555555555556],[""2"",-0.1824074074074074,0.25092592592592594],[""2"",-0.11296296296296296,0.11944444444444445],[""2"",-0.08518518518518518,0.1425925925925926],[""2"",0.003703703703703704,0.14351851851851852],[""2"",0.012962962962962963,0.14629629629629629],[""1"",-0.32222222222222224,0.1574074074074074],[""1"",-0.2351851851851852,0.14907407407407408],[""1"",-0.22407407407407406,0.14629629629629629],[""3"",-0.1537037037037037,0.24537037037037038],[""3"",-0.1398148148148148,0.1712962962962963],[""3"",-0.10185185185185185,0.15462962962962962],[""3"",-0.08981481481481482,0.14722222222222223],[""3"",-0.08888888888888889,0.14444444444444443],[""3"",-0.10925925925925926,0.15555555555555556],[""3"",-0.11666666666666667,0.15555555555555556],[""3"",-0.11574074074074074,0.15],[""4"",-0.11851851851851852,0.2916666666666667],[""4"",-0.15462962962962962,0.2916666666666667],[""4"",-0.15462962962962962,0.2953703703703704],[""4"",-0.2675925925925926,0.20462962962962963],[""4"",-0.30462962962962964,0.15],[""4"",-0.3194444444444444,0.14537037037037037],[""4"",-0.3212962962962963,0.14537037037037037],[""5"",-0.09722222222222222,0.2898148148148148],[""5"",-0.2490740740740741,0.18611111111111112],[""5"",-0.26944444444444443,0.15462962962962962],[""5"",-0.27037037037037037,0.14351851851851852],[""6"",-0.13240740740740742,0.24074074074074073],[""6"",-0.3388888888888889,0.21203703703703702],[""6"",-0.37777777777777777,0.17222222222222222],[""6"",-0.3537037037037037,0.14351851851851852],[""6"",-0.3537037037037037,0.14074074074074075]]","[[""A"",""D""],[""A"",""C""],[""D"",""C""],[""B"",""C""],[""B"",""A""],[""F"",""A""],[""F"",""B""],[""E"",""B""]]",8,0.5062,71.0299,0,1,1,1,1,,,,,,,,,,,,
,,,,,,,,,,,,,,,,,,,,,,,,,,,,,,,,,,,,,,,,,,,,,,,,,,,,,,,,,,,,jl04,001,2021-10-11_09h38.53.249,seq_teaching_exp,2021.2.3,Win32,59.70149254,,,,,,,,,,,,,,,,,,,,,,,,,,,,,,,,,,,,,,,,,,,,,,,,,,,,,,,,,,,,,,,,materials/merge_sort/imgs/fruits/apple,,,,,,,,G,C,"G,C,E,A,F,D,B",0.487037037,-0.323148148,1,0,0,"[""7"",""5"",""3"",""6"",""1"",""4"",""2""]","[""'B'"",""'F'"",""'E'"",""'D'"",""'G'"",""'A'"",""'C'""]","[[""1"",-0.25,0.29814814814814816],[""1"",-0.17037037037037037,0.1925925925925926],[""1"",-0.09444444444444444,0.18055555555555555],[""1"",-0.05555555555555555,0.17777777777777778],[""1"",-0.05555555555555555,0.17685185185185184],[""2"",-0.21851851851851853,0.24444444444444444],[""2"",-0.22685185185185186,0.18425925925925926],[""2"",-0.22592592592592592,0.17777777777777778],[""2"",-0.225,0.1787037037037037],[""3"",-0.15092592592592594,0.3074074074074074],[""3"",-0.3101851851851852,0.24444444444444444],[""3"",-0.3111111111111111,0.1925925925925926],[""3"",-0.3416666666666667,0.1787037037037037],[""3"",-0.33425925925925926,0.1824074074074074],[""3"",-0.33055555555555555,0.1824074074074074],[""4"",-0.1,0.29907407407407405],[""4"",-0.14166666666666666,0.1675925925925926],[""4"",-0.1388888888888889,0.1787037037037037],[""4"",-0.1388888888888889,0.18611111111111112],[""4"",-0.1388888888888889,0.18703703703703703],[""4"",-0.1388888888888889,0.17037037037037037],[""4"",-0.1388888888888889,0.16666666666666666],[""4"",-0.13796296296296295,0.17962962962962964],[""5"",-0.1537037037037037,0.2851851851851852],[""5"",-0.18888888888888888,0.2796296296296296],[""5"",-0.19166666666666668,0.2796296296296296],[""5"",-0.28055555555555556,0.29907407407407405],[""5"",-0.3861111111111111,0.2074074074074074],[""5"",-0.3824074074074074,0.19074074074074074],[""5"",-0.3851851851851852,0.18611111111111112],[""5"",-0.39444444444444443,0.18333333333333332],[""6"",-0.007407407407407408,0.30648148148148147],[""6"",-0.1537037037037037,0.31203703703703706],[""6"",-0.3314814814814815,0.2759259259259259],[""6"",-0.33796296296296297,0.275],[""6"",-0.325,0.275],[""6"",-0.2777777777777778,0.21203703703703702],[""6"",-0.2759259259259259,0.19166666666666668],[""6"",-0.2777777777777778,0.18333333333333332],[""6"",-0.27685185185185185,0.175],[""7"",0.04814814814814815,0.32037037037037036],[""7"",0.04814814814814815,0.3148148148148148],[""7"",-0.03518518518518519,0.325],[""7"",-0.08518518518518518,0.3333333333333333],[""7"",-0.22407407407407406,0.2638888888888889],[""7"",-0.3148148148148148,0.2037037037037037],[""7"",-0.31296296296296294,0.17407407407407408],[""7"",-0.2935185185185185,0.16203703703703703],[""7"",-0.29259259259259257,0.16018518518518518],[""7"",-0.35185185185185186,0.12129629629629629],[""7"",-0.3731481481481482,0.14907407407407408],[""7"",-0.35833333333333334,0.1574074074074074]]","[[""B"",""F""],[""B"",""E""],[""F"",""E""],[""D"",""F""],[""D"",""B""],[""G"",""D""],[""G"",""E""],[""A"",""F""],[""A"",""G""],[""A"",""E""],[""C"",""E""],[""C"",""G""]]",12,0.5082,127.2083,0,2,2,2,1,,,,,,,,,,,,
,,,,,,,,,,,,,,,,,,,,,,,,,,,,,,,,,,,,,,,,,,,,,,,,,,,,,,,,,,,,jl04,001,2021-10-11_09h38.53.249,seq_teaching_exp,2021.2.3,Win32,59.70149254,,,,,,,,,,,,,,,,,,,,,,,,,,,,,,,,,,,,,,,,,,,,,,,,,,,,,,,,,,,,,,,,materials/merge_sort/imgs/fruits/banana,,,,,,,,G,F,"F,G,C,E,B,A,D",0.510185185,-0.358333333,1,0,0,"[""4"",""7"",""2"",""6"",""3"",""5"",""1""]","[""'E'"",""'D'"",""'G'"",""'A'"",""'C'"",""'B'"",""'F'""]","[[""1"",-0.23425925925925925,0.18981481481481483],[""1"",-0.23796296296296296,0.15],[""2"",-0.18703703703703703,0.2490740740740741],[""2"",-0.10740740740740741,0.11944444444444445],[""2"",-0.1111111111111111,0.14074074074074075],[""2"",-0.06481481481481481,0.14444444444444443],[""2"",-0.05648148148148148,0.14629629629629629],[""3"",-0.19166666666666668,0.26666666666666666],[""3"",-0.23981481481481481,0.26296296296296295],[""3"",-0.33425925925925926,0.1638888888888889],[""3"",-0.3212962962962963,0.11481481481481481],[""3"",-0.3416666666666667,0.13425925925925927],[""3"",-0.34444444444444444,0.15185185185185185],[""4"",-0.11574074074074074,0.26481481481481484],[""4"",-0.1287037037037037,0.16203703703703703],[""4"",-0.1537037037037037,0.16296296296296298],[""4"",-0.15,0.15925925925925927],[""5"",-0.1388888888888889,0.275],[""5"",-0.2861111111111111,0.18796296296296297],[""5"",-0.29444444444444445,0.1685185185185185],[""5"",-0.29259259259259257,0.1537037037037037],[""5"",-0.29259259259259257,0.15092592592592594],[""6"",-0.1388888888888889,0.30833333333333335],[""6"",-0.18333333333333332,0.25092592592592594],[""6"",-0.18333333333333332,0.24722222222222223],[""6"",-0.17037037037037037,0.2611111111111111],[""6"",-0.13703703703703704,0.2601851851851852],[""6"",-0.13518518518518519,0.25925925925925924],[""6"",-0.19166666666666668,0.22407407407407406],[""6"",-0.19722222222222222,0.16666666666666666],[""6"",-0.1962962962962963,0.16018518518518518],[""6"",-0.1962962962962963,0.15925925925925927],[""6"",-0.1962962962962963,0.15555555555555556],[""7"",0.1648148148148148,0.15925925925925927],[""7"",0.06018518518518518,0.05555555555555555],[""7"",-0.1287037037037037,0.03611111111111111],[""7"",-0.15925925925925927,0.037037037037037035],[""7"",-0.15833333333333333,0.03611111111111111],[""7"",-0.30462962962962964,0.04814814814814815],[""7"",-0.36018518518518516,0.06388888888888888],[""7"",-0.3824074074074074,0.07685185185185185],[""7"",-0.38333333333333336,0.0787037037037037]]","[[""E"",""D""],[""E"",""G""],[""E"",""D""],[""A"",""D""],[""A"",""G""],[""A"",""E""],[""C"",""E""],[""C"",""G""],[""B"",""G""],[""B"",""E""],[""B"",""D""],[""B"",""A""],[""F"",""A""],[""F"",""E""],[""F"",""G""]]",15,0.5083,120.176,0,3,3,3,1,,,,,,,,,,,,
,,,,,,,,,,,,,,,,,,,,,,,,,,,,,,,,,,,,,,,,,,,,,,,,,,,,,,,,,,,,jl04,001,2021-10-11_09h38.53.249,seq_teaching_exp,2021.2.3,Win32,59.70149254,,,,,,,,,,,,,,,,,,,,,,,,,,,,,,,,,,,,,,,,,,,,,,,,,,,,,,,,,,,,,,,,materials/merge_sort/imgs/fruits/melon,,,,,,,,F,G,"G,F,D,B,E,C,H,A",0.473148148,-0.35462963,1,0,0,"[""8"",""7"",""6"",""5"",""4"",""3"",""2"",""1""]","[""'A'"",""'H'"",""'C'"",""'E'"",""'B'"",""'D'"",""'F'"",""'G'""]","[[""1"",-0.21388888888888888,0.20185185185185187],[""1"",-0.12129629629629629,0.16296296296296298],[""2"",-0.21574074074074073,0.2722222222222222],[""2"",-0.2537037037037037,0.17777777777777778],[""1"",0.03425925925925926,0.16203703703703703],[""1"",0.10462962962962963,0.11018518518518519],[""1"",0.15648148148148147,0.08425925925925926],[""2"",-0.20462962962962963,0.10092592592592593],[""2"",-0.18796296296296297,0.08055555555555556],[""2"",-0.18703703703703703,0.08425925925925926],[""3"",-0.15185185185185185,0.2953703703703704],[""3"",-0.29907407407407405,0.15555555555555556],[""3"",-0.32037037037037036,0.10092592592592593],[""3"",-0.3111111111111111,0.08981481481481482],[""3"",-0.30833333333333335,0.0824074074074074],[""4"",-0.26296296296296295,0.25925925925925924],[""4"",-0.3490740740740741,0.1398148148148148],[""4"",-0.36666666666666664,0.08611111111111111],[""4"",-0.36666666666666664,0.08333333333333333],[""5"",-0.026851851851851852,0.21203703703703702],[""5"",-0.049074074074074076,0.053703703703703705],[""5"",-0.2388888888888889,0.009259259259259259],[""5"",-0.37037037037037035,0.012962962962962963],[""5"",-0.38333333333333336,0.019444444444444445],[""3"",-0.24074074074074073,0.06759259259259259],[""3"",-0.25092592592592594,0.0824074074074074],[""2"",-0.1712962962962963,0.06944444444444445],[""2"",-0.15555555555555556,0.06944444444444445],[""2"",-0.10833333333333334,0.09814814814814815],[""2"",-0.05462962962962963,0.10833333333333334],[""2"",-0.044444444444444446,0.08981481481481482],[""3"",-0.15092592592592594,0.08703703703703704],[""3"",-0.14537037037037037,0.08703703703703704],[""4"",-0.30277777777777776,0.07685185185185185],[""4"",-0.23148148148148148,0.07777777777777778],[""4"",-0.21296296296296297,0.08796296296296297],[""4"",-0.2101851851851852,0.08888888888888889],[""5"",-0.2851851851851852,0.08333333333333333],[""5"",-0.25833333333333336,0.10648148148148148],[""5"",-0.2972222222222222,0.09814814814814815],[""5"",-0.3,0.09444444444444444],[""5"",-0.3,0.08888888888888889],[""6"",-0.010185185185185186,0.3],[""5"",-0.32685185185185184,0.12407407407407407],[""6"",-0.06666666666666667,0.2796296296296296],[""5"",-0.3685185185185185,0.10462962962962963],[""5"",-0.32037037037037036,0.11388888888888889],[""5"",-0.28888888888888886,0.11203703703703703],[""5"",-0.27037037037037037,0.1111111111111111],[""5"",-0.2675925925925926,0.0962962962962963],[""5"",-0.26666666666666666,0.09351851851851851],[""6"",-0.18981481481481483,0.2851851851851852],[""6"",-0.2611111111111111,0.2490740740740741],[""6"",-0.3212962962962963,0.22592592592592592],[""6"",-0.35,0.13703703703703704],[""6"",-0.3453703703703704,0.10185185185185185],[""6"",-0.3287037037037037,0.1037037037037037],[""7"",-0.03148148148148148,0.2490740740740741],[""7"",-0.18518518518518517,0.25277777777777777],[""7"",-0.19166666666666668,0.2537037037037037],[""7"",-0.34074074074074073,0.19814814814814816],[""7"",-0.3768518518518518,0.12314814814814815],[""7"",-0.3787037037037037,0.09537037037037037],[""8"",-0.16018518518518518,0.26944444444444443],[""8"",-0.1824074074074074,0.2601851851851852],[""8"",-0.3296296296296296,0.2212962962962963],[""8"",-0.37592592592592594,0.1824074074074074],[""8"",-0.387037037037037,0.18333333333333332]]","[[""A"",""H""],[""C"",""H""],[""E"",""H""],[""E"",""C""],[""B"",""C""],[""B"",""E""],[""D"",""B""],[""D"",""F""],[""G"",""F""]]",9,0.5068,96.7773,0,4,4,4,1,,,,,,,,,,,,
,,,,,,,,,,,,,,,,,,,,,,,,,,,,,,,,,,,,,,,,,,,,,,,,,,,,,,,,,,,,jl04,001,2021-10-11_09h38.53.249,seq_teaching_exp,2021.2.3,Win32,59.70149254,,,,,,,,,,,,,,,,,,,,,,,,,,,,,,,,,,,,,,,,,,,,,,,,,,,,,,,,,,,,,,,,materials/merge_sort/imgs/fruits/apple,,,,,,,,D,A,"F,D,A,B,E,H,I,C,G,J",0.496296296,-0.350925926,1,0,0,"[""5"",""7"",""6"",""1"",""4"",""9"",""8"",""10"",""2"",""3""]","[""'E'"",""'I'"",""'H'"",""'F'"",""'B'"",""'G'"",""'C'"",""'J'"",""'D'"",""'A'""]","[[""1"",-0.19907407407407407,0.1935185185185185],[""1"",-0.125,0.19444444444444445],[""1"",-0.12777777777777777,0.19444444444444445],[""1"",-0.15462962962962962,0.15],[""1"",-0.2064814814814815,0.13240740740740742],[""2"",-0.18611111111111112,0.2953703703703704],[""2"",-0.06111111111111111,0.14814814814814814],[""2"",-0.02962962962962963,0.1259259259259259],[""2"",-0.03611111111111111,0.1398148148148148],[""2"",-0.03611111111111111,0.1425925925925926],[""2"",-0.030555555555555555,0.13333333333333333],[""3"",-0.11018518518518519,0.2074074074074074],[""3"",-0.10462962962962963,0.15],[""3"",-0.11388888888888889,0.1388888888888889],[""3"",-0.11388888888888889,0.13425925925925927],[""4"",-0.1925925925925926,0.23148148148148148],[""4"",-0.30648148148148147,0.1259259259259259],[""4"",-0.2898148148148148,0.13425925925925927],[""4"",-0.2898148148148148,0.13796296296296295],[""5"",-0.06018518518518518,0.3074074074074074],[""5"",-0.21481481481481482,0.18611111111111112],[""5"",-0.25092592592592594,0.12777777777777777],[""5"",-0.25,0.14814814814814814],[""5"",-0.25,0.15],[""5"",-0.24814814814814815,0.13796296296296295],[""5"",-0.24814814814814815,0.13240740740740742],[""6"",0.011111111111111112,0.2740740740740741],[""6"",0.06759259259259259,0.14444444444444443],[""6"",0.04351851851851852,0.15092592592592594],[""6"",0.04259259259259259,0.14166666666666666],[""7"",0.020370370370370372,0.2101851851851852],[""7"",0.013888888888888888,0.14629629629629629],[""7"",0.010185185185185186,0.1388888888888889],[""7"",0.010185185185185186,0.1361111111111111],[""8"",0.1037037037037037,0.2740740740740741],[""8"",0.12222222222222222,0.1638888888888889],[""8"",0.09814814814814815,0.1259259259259259],[""8"",0.09722222222222222,0.13796296296296295],[""8"",0.09907407407407408,0.14444444444444443],[""9"",0.14351851851851852,0.3055555555555556],[""9"",-0.12314814814814815,0.2916666666666667],[""9"",-0.19814814814814816,0.2740740740740741],[""9"",-0.21481481481481482,0.24722222222222223],[""9"",-0.23055555555555557,0.24351851851851852],[""9"",-0.2462962962962963,0.24351851851851852],[""9"",-0.2490740740740741,0.23796296296296296],[""4"",-0.3111111111111111,0.14814814814814814],[""4"",-0.34814814814814815,0.13796296296296295],[""4"",-0.34814814814814815,0.13703703703703704],[""9"",-0.25555555555555554,0.22685185185185186],[""9"",-0.2935185185185185,0.14629629629629629],[""9"",-0.29444444444444445,0.14351851851851852],[""10"",0.1648148148148148,0.3],[""10"",-0.08518518518518518,0.24074074074074073],[""10"",-0.2537037037037037,0.22870370370370371],[""10"",-0.26944444444444443,0.19444444444444445],[""10"",-0.27314814814814814,0.17685185185185184]]","[[""E"",""I""],[""H"",""I""],[""H"",""E""],[""F"",""E""],[""B"",""E""],[""B"",""F""],[""G"",""F""],[""G"",""E""],[""G"",""I""],[""C"",""I""],[""C"",""G""],[""J"",""G""],[""D"",""G""],[""D"",""I""],[""D"",""E""],[""D"",""F""],[""D"",""B""],[""A"",""B""],[""A"",""F""],[""A"",""D""]]",20,0.5086,143.0565,0,5,5,5,1,,,,,,,,,,,,
,,,,,,,,,,,,,,,,,,,,,,,,,,,,,,,,,,,,,,,,,,,,,,,,,,,,,,,,,,,,jl04,001,2021-10-11_09h38.53.249,seq_teaching_exp,2021.2.3,Win32,59.70149254,,,,,,,,,,,,,,,,,,,,,,,,,,,,,,,,,,,,,,,,,,,,,,,,,,,,,,,,,,,,,,,,,,,,,,,,,,,,,,,,,,,,,,,,,,,,,0.002777778,-0.351851852,1,0,0,12.6728,0.305555556,-0.059259259,1,0,0
